subCode,condition,trial_num,top_stim,top_cat,left_stim,left_cat,middle_stim,middle_cat,right_stim,right_cat,rt,time_elapsed,response_stim,response_cat
A12J4IRF5Z06BT,3,0,VCS_260,c,VCS_350,d,VCS_80,a,VCS_170,b,1068,19224,VCS_350,d
A12J4IRF5Z06BT,3,1,VCS_250,c,VCS_70,a,VCS_160,b,VCS_340,d,1095,21333,VCS_340,d
A12J4IRF5Z06BT,3,2,VCS_160,b,VCS_340,d,VCS_70,a,VCS_250,c,1297,23687,VCS_250,c
A12J4IRF5Z06BT,3,3,VCS_340,d,VCS_160,b,VCS_70,a,VCS_250,c,1248,25938,VCS_70,a
A12J4IRF5Z06BT,3,4,VCS_170,b,VCS_250,c,VCS_90,a,VCS_350,d,1725,28683,VCS_90,a
A12J4IRF5Z06BT,3,5,VCS_90,a,VCS_360,d,VCS_180,b,VCS_270,c,2198,31892,VCS_180,b
A12J4IRF5Z06BT,3,6,VCS_150,b,VCS_240,c,VCS_60,a,VCS_330,d,1823,34730,VCS_60,a
A12J4IRF5Z06BT,3,7,VCS_250,c,VCS_70,a,VCS_330,d,VCS_170,b,1764,37507,VCS_330,d
A12J4IRF5Z06BT,3,8,VCS_70,a,VCS_170,b,VCS_330,d,VCS_250,c,2182,40696,VCS_170,b
A12J4IRF5Z06BT,3,9,VCS_350,d,VCS_260,c,VCS_170,b,VCS_80,a,1311,43026,VCS_80,a
A12J4IRF5Z06BT,3,10,VCS_240,c,VCS_150,b,VCS_330,d,VCS_60,a,1460,45495,VCS_150,b
A12J4IRF5Z06BT,3,11,VCS_250,c,VCS_70,a,VCS_150,b,VCS_350,d,2456,48963,VCS_150,b
A12J4IRF5Z06BT,3,12,VCS_350,d,VCS_250,c,VCS_90,a,VCS_170,b,1779,51759,VCS_250,c
A12J4IRF5Z06BT,3,13,VCS_360,d,VCS_270,c,VCS_90,a,VCS_180,b,1705,54487,VCS_270,c
A12J4IRF5Z06BT,3,14,VCS_160,b,VCS_260,c,VCS_340,d,VCS_60,a,2492,57992,VCS_260,c
A12J4IRF5Z06BT,3,15,VCS_80,a,VCS_260,c,VCS_180,b,VCS_340,d,2945,61951,VCS_180,b
A12J4IRF5Z06BT,3,16,VCS_80,a,VCS_160,b,VCS_360,d,VCS_260,c,1673,64641,VCS_160,b
A12J4IRF5Z06BT,3,17,VCS_80,a,VCS_170,b,VCS_260,c,VCS_350,d,1552,67211,VCS_170,b
A12J4IRF5Z06BT,3,18,VCS_340,d,VCS_240,c,VCS_80,a,VCS_160,b,2275,70503,VCS_240,c
A12J4IRF5Z06BT,3,19,VCS_170,b,VCS_270,c,VCS_70,a,VCS_350,d,2350,73871,VCS_70,a
A12J4IRF5Z06BT,3,20,VCS_260,c,VCS_340,d,VCS_180,b,VCS_80,a,2342,77239,VCS_340,d
A12J4IRF5Z06BT,3,21,VCS_70,a,VCS_250,c,VCS_350,d,VCS_150,b,2458,80708,VCS_150,b
A12J4IRF5Z06BT,3,22,VCS_350,d,VCS_170,b,VCS_270,c,VCS_70,a,1341,83068,VCS_70,a
A12J4IRF5Z06BT,3,23,VCS_170,b,VCS_260,c,VCS_350,d,VCS_80,a,1138,85226,VCS_80,a
A12J4IRF5Z06BT,3,24,VCS_260,c,VCS_80,a,VCS_160,b,VCS_360,d,1217,87464,VCS_360,d
A12J4IRF5Z06BT,3,25,VCS_180,b,VCS_360,d,VCS_90,a,VCS_270,c,894,89372,VCS_90,a
A12J4IRF5Z06BT,3,26,VCS_70,a,VCS_160,b,VCS_250,c,VCS_340,d,1039,91428,VCS_160,b
A12J4IRF5Z06BT,3,27,VCS_330,d,VCS_150,b,VCS_60,a,VCS_240,c,1115,93563,VCS_240,c
A12J4IRF5Z06BT,3,28,VCS_270,c,VCS_360,d,VCS_90,a,VCS_180,b,1071,95649,VCS_360,d
A12J4IRF5Z06BT,3,29,VCS_340,d,VCS_60,a,VCS_260,c,VCS_160,b,708,97374,VCS_60,a
A12J4IRF5Z06BT,3,30,VCS_60,a,VCS_150,b,VCS_240,c,VCS_330,d,1141,99526,VCS_150,b
A12J4IRF5Z06BT,3,31,VCS_160,b,VCS_240,c,VCS_340,d,VCS_80,a,1087,101619,VCS_80,a
A150MDVC0C92OT,1,0,VCS_340,d,VCS_240,c,VCS_160,b,VCS_80,a,3660,12128,VCS_240,c
A150MDVC0C92OT,1,1,VCS_360,d,VCS_90,a,VCS_180,b,VCS_270,c,2798,15944,VCS_270,c
A150MDVC0C92OT,1,2,VCS_330,d,VCS_240,c,VCS_60,a,VCS_150,b,1943,18908,VCS_60,a
A150MDVC0C92OT,1,3,VCS_70,a,VCS_350,d,VCS_250,c,VCS_150,b,1869,21792,VCS_150,b
A150MDVC0C92OT,1,4,VCS_340,d,VCS_160,b,VCS_260,c,VCS_60,a,2227,25037,VCS_260,c
A150MDVC0C92OT,1,5,VCS_240,c,VCS_330,d,VCS_150,b,VCS_60,a,1230,27296,VCS_330,d
A150MDVC0C92OT,1,6,VCS_180,b,VCS_270,c,VCS_90,a,VCS_360,d,2890,31230,VCS_90,a
A150MDVC0C92OT,1,7,VCS_260,c,VCS_350,d,VCS_170,b,VCS_80,a,2914,35168,VCS_350,d
A150MDVC0C92OT,1,8,VCS_170,b,VCS_90,a,VCS_350,d,VCS_250,c,3550,39732,VCS_90,a
A150MDVC0C92OT,1,9,VCS_60,a,VCS_330,d,VCS_240,c,VCS_150,b,2126,42882,VCS_150,b
A150MDVC0C92OT,1,10,VCS_160,b,VCS_80,a,VCS_340,d,VCS_240,c,1609,45518,VCS_80,a
A150MDVC0C92OT,1,11,VCS_270,c,VCS_360,d,VCS_90,a,VCS_180,b,875,47425,VCS_360,d
A150MDVC0C92OT,1,12,VCS_160,b,VCS_250,c,VCS_70,a,VCS_340,d,1984,50425,VCS_70,a
A150MDVC0C92OT,1,13,VCS_250,c,VCS_170,b,VCS_330,d,VCS_70,a,774,52241,VCS_330,d
A150MDVC0C92OT,1,14,VCS_250,c,VCS_70,a,VCS_350,d,VCS_150,b,1024,54293,VCS_350,d
A150MDVC0C92OT,1,15,VCS_170,b,VCS_260,c,VCS_350,d,VCS_80,a,1758,57075,VCS_80,a
A150MDVC0C92OT,1,16,VCS_350,d,VCS_170,b,VCS_90,a,VCS_250,c,2867,60962,VCS_250,c
A150MDVC0C92OT,1,17,VCS_80,a,VCS_260,c,VCS_350,d,VCS_170,b,1905,63885,VCS_170,b
A150MDVC0C92OT,1,18,VCS_350,d,VCS_170,b,VCS_270,c,VCS_70,a,1106,66010,VCS_270,c
A150MDVC0C92OT,1,19,VCS_70,a,VCS_160,b,VCS_340,d,VCS_250,c,1250,68286,VCS_160,b
A150MDVC0C92OT,1,20,VCS_350,d,VCS_260,c,VCS_80,a,VCS_170,b,1152,70451,VCS_260,c
A150MDVC0C92OT,1,21,VCS_150,b,VCS_330,d,VCS_240,c,VCS_60,a,5075,76567,VCS_60,a
A150MDVC0C92OT,1,22,VCS_260,c,VCS_80,a,VCS_180,b,VCS_340,d,1074,78671,VCS_340,d
A150MDVC0C92OT,1,23,VCS_80,a,VCS_160,b,VCS_360,d,VCS_260,c,1255,80954,VCS_160,b
A150MDVC0C92OT,1,24,VCS_80,a,VCS_340,d,VCS_180,b,VCS_260,c,2195,84176,VCS_180,b
A150MDVC0C92OT,1,25,VCS_260,c,VCS_360,d,VCS_80,a,VCS_160,b,988,86204,VCS_360,d
A150MDVC0C92OT,1,26,VCS_90,a,VCS_270,c,VCS_180,b,VCS_360,d,3218,90443,VCS_180,b
A150MDVC0C92OT,1,27,VCS_250,c,VCS_340,d,VCS_160,b,VCS_70,a,2854,94320,VCS_340,d
A150MDVC0C92OT,1,28,VCS_70,a,VCS_250,c,VCS_170,b,VCS_330,d,3259,98622,VCS_170,b
A150MDVC0C92OT,1,29,VCS_160,b,VCS_260,c,VCS_340,d,VCS_60,a,1693,101337,VCS_60,a
A150MDVC0C92OT,1,30,VCS_170,b,VCS_270,c,VCS_70,a,VCS_350,d,1066,103423,VCS_70,a
A150MDVC0C92OT,1,31,VCS_340,d,VCS_160,b,VCS_70,a,VCS_250,c,1585,106033,VCS_250,c
A17TKHT8FEVH0R,3,0,VCS_330,d,VCS_150,b,VCS_240,c,VCS_60,a,3299,21249,VCS_240,c
A17TKHT8FEVH0R,3,1,VCS_260,c,VCS_360,d,VCS_160,b,VCS_80,a,1110,23363,VCS_360,d
A17TKHT8FEVH0R,3,2,VCS_170,b,VCS_350,d,VCS_270,c,VCS_70,a,2747,27114,VCS_70,a
A17TKHT8FEVH0R,3,3,VCS_160,b,VCS_250,c,VCS_340,d,VCS_70,a,1258,29378,VCS_70,a
A17TKHT8FEVH0R,3,4,VCS_250,c,VCS_350,d,VCS_70,a,VCS_150,b,2034,32415,VCS_350,d
A17TKHT8FEVH0R,3,5,VCS_250,c,VCS_170,b,VCS_70,a,VCS_330,d,1027,34448,VCS_330,d
A17TKHT8FEVH0R,3,6,VCS_70,a,VCS_330,d,VCS_250,c,VCS_170,b,1518,36970,VCS_170,b
A17TKHT8FEVH0R,3,7,VCS_260,c,VCS_350,d,VCS_80,a,VCS_170,b,1557,39531,VCS_80,a
A17TKHT8FEVH0R,3,8,VCS_260,c,VCS_180,b,VCS_80,a,VCS_340,d,1149,41684,VCS_340,d
A17TKHT8FEVH0R,3,9,VCS_70,a,VCS_250,c,VCS_340,d,VCS_160,b,1581,44271,VCS_160,b
A17TKHT8FEVH0R,3,10,VCS_340,d,VCS_160,b,VCS_240,c,VCS_80,a,1821,47097,VCS_80,a
A17TKHT8FEVH0R,3,11,VCS_250,c,VCS_160,b,VCS_340,d,VCS_70,a,1312,49414,VCS_340,d
A17TKHT8FEVH0R,3,12,VCS_270,c,VCS_360,d,VCS_90,a,VCS_180,b,1038,51457,VCS_360,d
A17TKHT8FEVH0R,3,13,VCS_60,a,VCS_330,d,VCS_150,b,VCS_240,c,1043,53504,VCS_150,b
A17TKHT8FEVH0R,3,14,VCS_350,d,VCS_250,c,VCS_170,b,VCS_90,a,2843,57350,VCS_250,c
A17TKHT8FEVH0R,3,15,VCS_80,a,VCS_160,b,VCS_260,c,VCS_360,d,1125,59478,VCS_160,b
A17TKHT8FEVH0R,3,16,VCS_350,d,VCS_260,c,VCS_80,a,VCS_170,b,1600,62081,VCS_260,c
A17TKHT8FEVH0R,3,17,VCS_350,d,VCS_270,c,VCS_70,a,VCS_170,b,930,64014,VCS_270,c
A17TKHT8FEVH0R,3,18,VCS_150,b,VCS_240,c,VCS_60,a,VCS_330,d,1647,66665,VCS_60,a
A17TKHT8FEVH0R,3,19,VCS_170,b,VCS_80,a,VCS_260,c,VCS_350,d,1348,69017,VCS_80,a
A17TKHT8FEVH0R,3,20,VCS_160,b,VCS_340,d,VCS_80,a,VCS_240,c,968,70988,VCS_80,a
A17TKHT8FEVH0R,3,21,VCS_160,b,VCS_340,d,VCS_260,c,VCS_60,a,1962,73956,VCS_60,a
A17TKHT8FEVH0R,3,22,VCS_340,d,VCS_260,c,VCS_60,a,VCS_160,b,1146,76108,VCS_260,c
A17TKHT8FEVH0R,3,23,VCS_360,d,VCS_270,c,VCS_90,a,VCS_180,b,1005,78116,VCS_270,c
A17TKHT8FEVH0R,3,24,VCS_180,b,VCS_90,a,VCS_360,d,VCS_270,c,1512,80633,VCS_90,a
A17TKHT8FEVH0R,3,25,VCS_340,d,VCS_160,b,VCS_70,a,VCS_250,c,1541,83180,VCS_250,c
A17TKHT8FEVH0R,3,26,VCS_240,c,VCS_150,b,VCS_60,a,VCS_330,d,1247,85432,VCS_330,d
A17TKHT8FEVH0R,3,27,VCS_90,a,VCS_270,c,VCS_180,b,VCS_360,d,998,87434,VCS_180,b
A17TKHT8FEVH0R,3,28,VCS_170,b,VCS_90,a,VCS_250,c,VCS_350,d,1191,89630,VCS_90,a
A17TKHT8FEVH0R,3,29,VCS_70,a,VCS_150,b,VCS_350,d,VCS_250,c,792,91425,VCS_150,b
A17TKHT8FEVH0R,3,30,VCS_80,a,VCS_340,d,VCS_180,b,VCS_260,c,4688,97117,VCS_340,d
A17TKHT8FEVH0R,3,31,VCS_80,a,VCS_260,c,VCS_350,d,VCS_170,b,1132,99253,VCS_350,d
A1AMGHYG5PT0L2,3,0,VCS_180,b,VCS_90,a,VCS_360,d,VCS_270,c,3083,8781,VCS_270,c
A1AMGHYG5PT0L2,3,1,VCS_250,c,VCS_70,a,VCS_340,d,VCS_160,b,1614,11421,VCS_160,b
A1AMGHYG5PT0L2,3,2,VCS_70,a,VCS_250,c,VCS_330,d,VCS_170,b,900,13332,VCS_170,b
A1AMGHYG5PT0L2,3,3,VCS_160,b,VCS_240,c,VCS_340,d,VCS_80,a,2293,16645,VCS_240,c
A1AMGHYG5PT0L2,3,4,VCS_330,d,VCS_60,a,VCS_150,b,VCS_240,c,988,18645,VCS_60,a
A1AMGHYG5PT0L2,3,5,VCS_250,c,VCS_70,a,VCS_350,d,VCS_150,b,2014,21684,VCS_150,b
A1AMGHYG5PT0L2,3,6,VCS_360,d,VCS_180,b,VCS_270,c,VCS_90,a,1056,23756,VCS_270,c
A1AMGHYG5PT0L2,3,7,VCS_80,a,VCS_170,b,VCS_350,d,VCS_260,c,649,25436,VCS_260,c
A1AMGHYG5PT0L2,3,8,VCS_170,b,VCS_70,a,VCS_350,d,VCS_270,c,1221,27661,VCS_70,a
A1AMGHYG5PT0L2,3,9,VCS_170,b,VCS_260,c,VCS_350,d,VCS_80,a,630,29316,VCS_80,a
A1AMGHYG5PT0L2,3,10,VCS_90,a,VCS_180,b,VCS_270,c,VCS_360,d,888,31221,VCS_180,b
A1AMGHYG5PT0L2,3,11,VCS_340,d,VCS_60,a,VCS_260,c,VCS_160,b,733,32973,VCS_260,c
A1AMGHYG5PT0L2,3,12,VCS_80,a,VCS_160,b,VCS_360,d,VCS_260,c,806,34796,VCS_260,c
A1AMGHYG5PT0L2,3,13,VCS_350,d,VCS_260,c,VCS_80,a,VCS_170,b,886,36708,VCS_260,c
A1AMGHYG5PT0L2,3,14,VCS_70,a,VCS_340,d,VCS_250,c,VCS_160,b,746,38468,VCS_160,b
A1AMGHYG5PT0L2,3,15,VCS_340,d,VCS_80,a,VCS_160,b,VCS_240,c,1312,40796,VCS_240,c
A1AMGHYG5PT0L2,3,16,VCS_60,a,VCS_240,c,VCS_330,d,VCS_150,b,1047,42860,VCS_150,b
A1AMGHYG5PT0L2,3,17,VCS_70,a,VCS_350,d,VCS_250,c,VCS_150,b,639,44516,VCS_150,b
A1AMGHYG5PT0L2,3,18,VCS_350,d,VCS_170,b,VCS_70,a,VCS_270,c,829,46356,VCS_270,c
A1AMGHYG5PT0L2,3,19,VCS_260,c,VCS_160,b,VCS_360,d,VCS_80,a,766,48140,VCS_360,d
A1AMGHYG5PT0L2,3,20,VCS_160,b,VCS_70,a,VCS_340,d,VCS_250,c,1643,50804,VCS_250,c
A1AMGHYG5PT0L2,3,21,VCS_260,c,VCS_80,a,VCS_350,d,VCS_170,b,501,52325,VCS_350,d
A1AMGHYG5PT0L2,3,22,VCS_260,c,VCS_340,d,VCS_180,b,VCS_80,a,833,54164,VCS_340,d
A1AMGHYG5PT0L2,3,23,VCS_80,a,VCS_340,d,VCS_260,c,VCS_180,b,590,55780,VCS_260,c
A1AMGHYG5PT0L2,3,24,VCS_340,d,VCS_160,b,VCS_70,a,VCS_250,c,827,57620,VCS_250,c
A1AMGHYG5PT0L2,3,25,VCS_270,c,VCS_360,d,VCS_90,a,VCS_180,b,621,59268,VCS_180,b
A1AMGHYG5PT0L2,3,26,VCS_240,c,VCS_150,b,VCS_60,a,VCS_330,d,891,61173,VCS_150,b
A1AMGHYG5PT0L2,3,27,VCS_170,b,VCS_250,c,VCS_90,a,VCS_350,d,924,63117,VCS_90,a
A1AMGHYG5PT0L2,3,28,VCS_150,b,VCS_240,c,VCS_330,d,VCS_60,a,1046,65189,VCS_60,a
A1AMGHYG5PT0L2,3,29,VCS_160,b,VCS_340,d,VCS_260,c,VCS_60,a,982,67189,VCS_60,a
A1AMGHYG5PT0L2,3,30,VCS_350,d,VCS_250,c,VCS_170,b,VCS_90,a,779,68981,VCS_250,c
A1AMGHYG5PT0L2,3,31,VCS_250,c,VCS_70,a,VCS_170,b,VCS_330,d,872,70877,VCS_330,d
A1F1X57CUVKKLP,1,0,VCS_240,c,VCS_60,a,VCS_330,d,VCS_150,b,1918,20520,VCS_330,d
A1F1X57CUVKKLP,1,1,VCS_350,d,VCS_250,c,VCS_90,a,VCS_170,b,2093,23633,VCS_250,c
A1F1X57CUVKKLP,1,2,VCS_160,b,VCS_340,d,VCS_260,c,VCS_60,a,3172,27825,VCS_260,c
A1F1X57CUVKKLP,1,3,VCS_170,b,VCS_260,c,VCS_350,d,VCS_80,a,4535,33384,VCS_260,c
A1F1X57CUVKKLP,1,4,VCS_260,c,VCS_180,b,VCS_340,d,VCS_80,a,3210,37614,VCS_340,d
A1F1X57CUVKKLP,1,5,VCS_160,b,VCS_340,d,VCS_80,a,VCS_240,c,1259,39892,VCS_80,a
A1F1X57CUVKKLP,1,6,VCS_250,c,VCS_70,a,VCS_350,d,VCS_150,b,3783,44700,VCS_150,b
A1F1X57CUVKKLP,1,7,VCS_260,c,VCS_170,b,VCS_80,a,VCS_350,d,3471,49195,VCS_170,b
A1F1X57CUVKKLP,1,8,VCS_180,b,VCS_90,a,VCS_270,c,VCS_360,d,1908,52124,VCS_90,a
A1F1X57CUVKKLP,1,9,VCS_80,a,VCS_350,d,VCS_170,b,VCS_260,c,6656,59801,VCS_170,b
A1F1X57CUVKKLP,1,10,VCS_340,d,VCS_260,c,VCS_160,b,VCS_60,a,2543,63363,VCS_260,c
A1F1X57CUVKKLP,1,11,VCS_70,a,VCS_340,d,VCS_160,b,VCS_250,c,2580,66967,VCS_160,b
A1F1X57CUVKKLP,1,12,VCS_250,c,VCS_70,a,VCS_170,b,VCS_330,d,1761,69743,VCS_330,d
A1F1X57CUVKKLP,1,13,VCS_360,d,VCS_180,b,VCS_90,a,VCS_270,c,1583,72349,VCS_270,c
A1F1X57CUVKKLP,1,14,VCS_170,b,VCS_350,d,VCS_250,c,VCS_90,a,2138,75510,VCS_90,a
A1F1X57CUVKKLP,1,15,VCS_60,a,VCS_240,c,VCS_150,b,VCS_330,d,1193,77725,VCS_150,b
A1F1X57CUVKKLP,1,16,VCS_340,d,VCS_70,a,VCS_250,c,VCS_160,b,1427,80171,VCS_250,c
A1F1X57CUVKKLP,1,17,VCS_80,a,VCS_340,d,VCS_260,c,VCS_180,b,1692,82890,VCS_180,b
A1F1X57CUVKKLP,1,18,VCS_70,a,VCS_350,d,VCS_150,b,VCS_250,c,1097,84999,VCS_150,b
A1F1X57CUVKKLP,1,19,VCS_70,a,VCS_170,b,VCS_330,d,VCS_250,c,1192,87214,VCS_170,b
A1F1X57CUVKKLP,1,20,VCS_350,d,VCS_170,b,VCS_270,c,VCS_70,a,1090,89322,VCS_270,c
A1F1X57CUVKKLP,1,21,VCS_80,a,VCS_260,c,VCS_360,d,VCS_160,b,1811,92151,VCS_160,b
A1F1X57CUVKKLP,1,22,VCS_330,d,VCS_150,b,VCS_60,a,VCS_240,c,1420,94596,VCS_240,c
A1F1X57CUVKKLP,1,23,VCS_150,b,VCS_330,d,VCS_60,a,VCS_240,c,1303,96922,VCS_60,a
A1F1X57CUVKKLP,1,24,VCS_350,d,VCS_170,b,VCS_260,c,VCS_80,a,1222,99166,VCS_260,c
A1F1X57CUVKKLP,1,25,VCS_340,d,VCS_80,a,VCS_240,c,VCS_160,b,963,101151,VCS_240,c
A1F1X57CUVKKLP,1,26,VCS_260,c,VCS_80,a,VCS_360,d,VCS_160,b,777,102945,VCS_360,d
A1F1X57CUVKKLP,1,27,VCS_250,c,VCS_340,d,VCS_70,a,VCS_160,b,1398,105363,VCS_340,d
A1F1X57CUVKKLP,1,28,VCS_160,b,VCS_70,a,VCS_250,c,VCS_340,d,1131,107510,VCS_70,a
A1F1X57CUVKKLP,1,29,VCS_90,a,VCS_180,b,VCS_360,d,VCS_270,c,809,109343,VCS_180,b
A1F1X57CUVKKLP,1,30,VCS_170,b,VCS_70,a,VCS_270,c,VCS_350,d,1162,111521,VCS_70,a
A1F1X57CUVKKLP,1,31,VCS_270,c,VCS_360,d,VCS_180,b,VCS_90,a,1090,113632,VCS_360,d
A1FCCYX1R42IK0,3,0,VCS_330,d,VCS_150,b,VCS_60,a,VCS_240,c,1276,7297,VCS_60,a
A1FCCYX1R42IK0,3,1,VCS_180,b,VCS_360,d,VCS_90,a,VCS_270,c,696,8995,VCS_360,d
A1FCCYX1R42IK0,3,2,VCS_70,a,VCS_160,b,VCS_340,d,VCS_250,c,582,10607,VCS_340,d
A1FCCYX1R42IK0,3,3,VCS_80,a,VCS_360,d,VCS_160,b,VCS_260,c,738,12360,VCS_260,c
A1FCCYX1R42IK0,3,4,VCS_80,a,VCS_260,c,VCS_170,b,VCS_350,d,362,13727,VCS_350,d
A1FCCYX1R42IK0,3,5,VCS_350,d,VCS_170,b,VCS_270,c,VCS_70,a,952,15767,VCS_270,c
A1FCCYX1R42IK0,3,6,VCS_80,a,VCS_340,d,VCS_180,b,VCS_260,c,959,17743,VCS_260,c
A1FCCYX1R42IK0,3,7,VCS_360,d,VCS_90,a,VCS_180,b,VCS_270,c,985,19744,VCS_90,a
A1FCCYX1R42IK0,3,8,VCS_350,d,VCS_170,b,VCS_80,a,VCS_260,c,1381,22141,VCS_80,a
A1FCCYX1R42IK0,3,9,VCS_350,d,VCS_170,b,VCS_90,a,VCS_250,c,921,24090,VCS_250,c
A1FCCYX1R42IK0,3,10,VCS_340,d,VCS_260,c,VCS_60,a,VCS_160,b,886,25979,VCS_60,a
A1FCCYX1R42IK0,3,11,VCS_270,c,VCS_180,b,VCS_90,a,VCS_360,d,704,27710,VCS_90,a
A1FCCYX1R42IK0,3,12,VCS_90,a,VCS_270,c,VCS_360,d,VCS_180,b,351,29080,VCS_180,b
A1FCCYX1R42IK0,3,13,VCS_340,d,VCS_160,b,VCS_240,c,VCS_80,a,196,30511,VCS_240,c
A1FCCYX1R42IK0,3,14,VCS_170,b,VCS_260,c,VCS_80,a,VCS_350,d,1267,32997,VCS_260,c
A1FCCYX1R42IK0,3,15,VCS_160,b,VCS_60,a,VCS_340,d,VCS_260,c,1477,35484,VCS_340,d
A1FCCYX1R42IK0,3,16,VCS_170,b,VCS_250,c,VCS_350,d,VCS_90,a,4504,41079,VCS_90,a
A1FCCYX1R42IK0,3,17,VCS_170,b,VCS_350,d,VCS_270,c,VCS_70,a,1044,43159,VCS_270,c
A1FCCYX1R42IK0,3,18,VCS_260,c,VCS_80,a,VCS_340,d,VCS_180,b,873,45088,VCS_180,b
A1FCCYX1R42IK0,3,19,VCS_160,b,VCS_70,a,VCS_250,c,VCS_340,d,960,47102,VCS_250,c
A1FCCYX1R42IK0,3,20,VCS_160,b,VCS_240,c,VCS_340,d,VCS_80,a,1001,49111,VCS_80,a
A1FCCYX1R42IK0,3,21,VCS_70,a,VCS_250,c,VCS_350,d,VCS_150,b,94,50367,VCS_150,b
A1FCCYX1R42IK0,3,22,VCS_340,d,VCS_250,c,VCS_70,a,VCS_160,b,1001,52397,VCS_70,a
A1FCCYX1R42IK0,3,23,VCS_250,c,VCS_70,a,VCS_150,b,VCS_350,d,3653,57071,VCS_150,b
A1FCCYX1R42IK0,3,24,VCS_150,b,VCS_240,c,VCS_330,d,VCS_60,a,850,58943,VCS_60,a
A1FCCYX1R42IK0,3,25,VCS_70,a,VCS_250,c,VCS_170,b,VCS_330,d,672,60762,VCS_170,b
A1FCCYX1R42IK0,3,26,VCS_250,c,VCS_70,a,VCS_160,b,VCS_340,d,348,62231,VCS_160,b
A1FCCYX1R42IK0,3,27,VCS_240,c,VCS_60,a,VCS_150,b,VCS_330,d,862,64220,VCS_150,b
A1FCCYX1R42IK0,3,28,VCS_260,c,VCS_80,a,VCS_170,b,VCS_350,d,1411,66648,VCS_170,b
A1FCCYX1R42IK0,3,29,VCS_250,c,VCS_330,d,VCS_170,b,VCS_70,a,1064,68943,VCS_170,b
A1FCCYX1R42IK0,3,30,VCS_260,c,VCS_80,a,VCS_160,b,VCS_360,d,691,70855,VCS_160,b
A1FCCYX1R42IK0,3,31,VCS_60,a,VCS_150,b,VCS_240,c,VCS_330,d,1176,73096,VCS_330,d
A1HJCRM8YZME8,3,0,VCS_160,b,VCS_240,c,VCS_340,d,VCS_80,a,1750,354390,VCS_240,c
A1HJCRM8YZME8,3,1,VCS_240,c,VCS_150,b,VCS_60,a,VCS_330,d,896,356304,VCS_330,d
A1HJCRM8YZME8,3,2,VCS_260,c,VCS_350,d,VCS_80,a,VCS_170,b,1318,358632,VCS_170,b
A1HJCRM8YZME8,3,3,VCS_260,c,VCS_340,d,VCS_80,a,VCS_180,b,894,360546,VCS_80,a
A1HJCRM8YZME8,3,4,VCS_170,b,VCS_70,a,VCS_350,d,VCS_270,c,772,362321,VCS_270,c
A1HJCRM8YZME8,3,5,VCS_260,c,VCS_160,b,VCS_80,a,VCS_360,d,1130,364465,VCS_160,b
A1HJCRM8YZME8,3,6,VCS_80,a,VCS_360,d,VCS_160,b,VCS_260,c,761,366231,VCS_160,b
A1HJCRM8YZME8,3,7,VCS_170,b,VCS_80,a,VCS_350,d,VCS_260,c,944,368326,VCS_260,c
A1HJCRM8YZME8,3,8,VCS_340,d,VCS_260,c,VCS_160,b,VCS_60,a,669,369998,VCS_160,b
A1HJCRM8YZME8,3,9,VCS_170,b,VCS_350,d,VCS_90,a,VCS_250,c,528,371530,VCS_250,c
A1HJCRM8YZME8,3,10,VCS_150,b,VCS_60,a,VCS_330,d,VCS_240,c,443,372983,VCS_240,c
A1HJCRM8YZME8,3,11,VCS_60,a,VCS_330,d,VCS_150,b,VCS_240,c,805,374818,VCS_150,b
A1HJCRM8YZME8,3,12,VCS_360,d,VCS_90,a,VCS_270,c,VCS_180,b,295,376127,VCS_180,b
A1HJCRM8YZME8,3,13,VCS_250,c,VCS_70,a,VCS_340,d,VCS_160,b,540,377694,VCS_340,d
A1HJCRM8YZME8,3,14,VCS_160,b,VCS_250,c,VCS_340,d,VCS_70,a,339,379051,VCS_70,a
A1HJCRM8YZME8,3,15,VCS_330,d,VCS_150,b,VCS_240,c,VCS_60,a,964,381031,VCS_240,c
A1HJCRM8YZME8,3,16,VCS_70,a,VCS_250,c,VCS_170,b,VCS_330,d,533,382582,VCS_330,d
A1HJCRM8YZME8,3,17,VCS_80,a,VCS_260,c,VCS_170,b,VCS_350,d,212,384094,VCS_350,d
A1HJCRM8YZME8,3,18,VCS_160,b,VCS_60,a,VCS_340,d,VCS_260,c,794,385903,VCS_260,c
A1HJCRM8YZME8,3,19,VCS_250,c,VCS_70,a,VCS_170,b,VCS_330,d,3123,390038,VCS_170,b
A1HJCRM8YZME8,3,20,VCS_70,a,VCS_160,b,VCS_250,c,VCS_340,d,920,391962,VCS_160,b
A1HJCRM8YZME8,3,21,VCS_70,a,VCS_250,c,VCS_350,d,VCS_150,b,986,393974,VCS_150,b
A1HJCRM8YZME8,3,22,VCS_80,a,VCS_260,c,VCS_180,b,VCS_340,d,465,395449,VCS_340,d
A1HJCRM8YZME8,3,23,VCS_180,b,VCS_270,c,VCS_90,a,VCS_360,d,1326,397783,VCS_270,c
A1HJCRM8YZME8,3,24,VCS_350,d,VCS_170,b,VCS_70,a,VCS_270,c,920,399710,VCS_270,c
A1HJCRM8YZME8,3,25,VCS_350,d,VCS_170,b,VCS_80,a,VCS_260,c,896,401616,VCS_80,a
A1HJCRM8YZME8,3,26,VCS_350,d,VCS_90,a,VCS_170,b,VCS_250,c,1115,403752,VCS_90,a
A1HJCRM8YZME8,3,27,VCS_250,c,VCS_70,a,VCS_150,b,VCS_350,d,894,405662,VCS_150,b
A1HJCRM8YZME8,3,28,VCS_270,c,VCS_360,d,VCS_90,a,VCS_180,b,985,407671,VCS_90,a
A1HJCRM8YZME8,3,29,VCS_340,d,VCS_80,a,VCS_160,b,VCS_240,c,445,409133,VCS_240,c
A1HJCRM8YZME8,3,30,VCS_90,a,VCS_360,d,VCS_270,c,VCS_180,b,546,410705,VCS_270,c
A1HJCRM8YZME8,3,31,VCS_340,d,VCS_250,c,VCS_160,b,VCS_70,a,708,412417,VCS_160,b
A1OOCYEFLAJD98,3,0,VCS_350,d,VCS_270,c,VCS_70,a,VCS_170,b,8199,185773,VCS_70,a
A1OOCYEFLAJD98,3,1,VCS_330,d,VCS_60,a,VCS_150,b,VCS_240,c,4571,191347,VCS_60,a
A1OOCYEFLAJD98,3,2,VCS_80,a,VCS_360,d,VCS_160,b,VCS_260,c,6090,198439,VCS_160,b
A1OOCYEFLAJD98,3,3,VCS_60,a,VCS_330,d,VCS_240,c,VCS_150,b,2091,201536,VCS_150,b
A1OOCYEFLAJD98,3,4,VCS_250,c,VCS_70,a,VCS_330,d,VCS_170,b,10831,213382,VCS_330,d
A1OOCYEFLAJD98,3,5,VCS_260,c,VCS_160,b,VCS_360,d,VCS_80,a,8272,222673,VCS_160,b
A1OOCYEFLAJD98,3,6,VCS_360,d,VCS_90,a,VCS_270,c,VCS_180,b,2486,226188,VCS_270,c
A1OOCYEFLAJD98,3,7,VCS_160,b,VCS_60,a,VCS_260,c,VCS_340,d,9894,237112,VCS_260,c
A1OOCYEFLAJD98,3,8,VCS_180,b,VCS_90,a,VCS_360,d,VCS_270,c,1686,239816,VCS_90,a
A1OOCYEFLAJD98,3,9,VCS_70,a,VCS_250,c,VCS_150,b,VCS_350,d,1581,242410,VCS_150,b
A1OOCYEFLAJD98,3,10,VCS_260,c,VCS_170,b,VCS_350,d,VCS_80,a,7068,250490,VCS_350,d
A1OOCYEFLAJD98,3,11,VCS_170,b,VCS_350,d,VCS_70,a,VCS_270,c,2950,254465,VCS_70,a
A1OOCYEFLAJD98,3,12,VCS_250,c,VCS_340,d,VCS_70,a,VCS_160,b,1854,257339,VCS_160,b
A1OOCYEFLAJD98,3,13,VCS_250,c,VCS_350,d,VCS_150,b,VCS_70,a,944,259292,VCS_150,b
A1OOCYEFLAJD98,3,14,VCS_160,b,VCS_240,c,VCS_340,d,VCS_80,a,2778,263079,VCS_80,a
A1OOCYEFLAJD98,3,15,VCS_240,c,VCS_150,b,VCS_60,a,VCS_330,d,9513,273597,VCS_150,b
A1OOCYEFLAJD98,3,16,VCS_340,d,VCS_70,a,VCS_160,b,VCS_250,c,8373,282972,VCS_70,a
A1OOCYEFLAJD98,3,17,VCS_170,b,VCS_350,d,VCS_90,a,VCS_250,c,2137,286120,VCS_90,a
A1OOCYEFLAJD98,3,18,VCS_80,a,VCS_260,c,VCS_340,d,VCS_180,b,11189,298315,VCS_180,b
A1OOCYEFLAJD98,3,19,VCS_160,b,VCS_70,a,VCS_340,d,VCS_250,c,2657,301992,VCS_70,a
A1OOCYEFLAJD98,3,20,VCS_150,b,VCS_330,d,VCS_240,c,VCS_60,a,910,303907,VCS_240,c
A1OOCYEFLAJD98,3,21,VCS_70,a,VCS_340,d,VCS_160,b,VCS_250,c,1094,306005,VCS_160,b
A1OOCYEFLAJD98,3,22,VCS_70,a,VCS_330,d,VCS_250,c,VCS_170,b,3097,310114,VCS_170,b
A1OOCYEFLAJD98,3,23,VCS_170,b,VCS_80,a,VCS_260,c,VCS_350,d,11217,322336,VCS_350,d
A1OOCYEFLAJD98,3,24,VCS_340,d,VCS_80,a,VCS_160,b,VCS_240,c,3862,327225,VCS_240,c
A1OOCYEFLAJD98,3,25,VCS_80,a,VCS_170,b,VCS_350,d,VCS_260,c,11246,339490,VCS_170,b
A1OOCYEFLAJD98,3,26,VCS_350,d,VCS_90,a,VCS_250,c,VCS_170,b,1720,342223,VCS_250,c
A1OOCYEFLAJD98,3,27,VCS_270,c,VCS_180,b,VCS_360,d,VCS_90,a,5191,348426,VCS_360,d
A1OOCYEFLAJD98,3,28,VCS_340,d,VCS_160,b,VCS_60,a,VCS_260,c,1809,351247,VCS_260,c
A1OOCYEFLAJD98,3,29,VCS_90,a,VCS_270,c,VCS_180,b,VCS_360,d,4609,356863,VCS_360,d
A1OOCYEFLAJD98,3,30,VCS_260,c,VCS_340,d,VCS_80,a,VCS_180,b,7014,364895,VCS_340,d
A1OOCYEFLAJD98,3,31,VCS_350,d,VCS_260,c,VCS_80,a,VCS_170,b,862,366767,VCS_260,c
A1PHDT66U6IK4Q,3,0,VCS_260,c,VCS_80,a,VCS_340,d,VCS_180,b,5180,85649,VCS_340,d
A1PHDT66U6IK4Q,3,1,VCS_270,c,VCS_360,d,VCS_180,b,VCS_90,a,3305,89968,VCS_360,d
A1PHDT66U6IK4Q,3,2,VCS_160,b,VCS_60,a,VCS_260,c,VCS_340,d,5371,96362,VCS_260,c
A1PHDT66U6IK4Q,3,3,VCS_250,c,VCS_170,b,VCS_330,d,VCS_70,a,3375,100744,VCS_330,d
A1PHDT66U6IK4Q,3,4,VCS_260,c,VCS_80,a,VCS_360,d,VCS_160,b,2127,103886,VCS_360,d
A1PHDT66U6IK4Q,3,5,VCS_70,a,VCS_250,c,VCS_330,d,VCS_170,b,5427,110318,VCS_170,b
A1PHDT66U6IK4Q,3,6,VCS_150,b,VCS_60,a,VCS_240,c,VCS_330,d,3014,114354,VCS_60,a
A1PHDT66U6IK4Q,3,7,VCS_80,a,VCS_170,b,VCS_350,d,VCS_260,c,4045,119412,VCS_170,b
A1PHDT66U6IK4Q,3,8,VCS_250,c,VCS_70,a,VCS_160,b,VCS_340,d,5915,126338,VCS_70,a
A1PHDT66U6IK4Q,3,9,VCS_180,b,VCS_90,a,VCS_270,c,VCS_360,d,6818,134168,VCS_270,c
A1PHDT66U6IK4Q,3,10,VCS_250,c,VCS_70,a,VCS_350,d,VCS_150,b,8462,143646,VCS_70,a
A1PHDT66U6IK4Q,3,11,VCS_350,d,VCS_270,c,VCS_170,b,VCS_70,a,3557,148216,VCS_270,c
A1PHDT66U6IK4Q,3,12,VCS_260,c,VCS_350,d,VCS_170,b,VCS_80,a,9335,158576,VCS_170,b
A1PHDT66U6IK4Q,3,13,VCS_80,a,VCS_260,c,VCS_360,d,VCS_160,b,5158,164748,VCS_160,b
A1PHDT66U6IK4Q,3,14,VCS_340,d,VCS_160,b,VCS_250,c,VCS_70,a,6753,172516,VCS_70,a
A1PHDT66U6IK4Q,3,15,VCS_330,d,VCS_240,c,VCS_60,a,VCS_150,b,9453,182984,VCS_60,a
A1PHDT66U6IK4Q,3,16,VCS_350,d,VCS_250,c,VCS_90,a,VCS_170,b,10038,194040,VCS_250,c
A1PHDT66U6IK4Q,3,17,VCS_170,b,VCS_260,c,VCS_80,a,VCS_350,d,6708,201773,VCS_80,a
A1PHDT66U6IK4Q,3,18,VCS_70,a,VCS_350,d,VCS_250,c,VCS_150,b,3212,206008,VCS_150,b
A1PHDT66U6IK4Q,3,19,VCS_360,d,VCS_270,c,VCS_180,b,VCS_90,a,6863,213878,VCS_270,c
A1PHDT66U6IK4Q,3,20,VCS_240,c,VCS_330,d,VCS_60,a,VCS_150,b,12116,227008,VCS_150,b
A1PHDT66U6IK4Q,3,21,VCS_160,b,VCS_250,c,VCS_70,a,VCS_340,d,5577,233588,VCS_70,a
A1PHDT66U6IK4Q,3,22,VCS_60,a,VCS_150,b,VCS_330,d,VCS_240,c,4236,238841,VCS_150,b
A1PHDT66U6IK4Q,3,23,VCS_340,d,VCS_260,c,VCS_160,b,VCS_60,a,6862,246727,VCS_60,a
A1PHDT66U6IK4Q,3,24,VCS_340,d,VCS_80,a,VCS_240,c,VCS_160,b,14915,262654,VCS_80,a
A1PHDT66U6IK4Q,3,25,VCS_170,b,VCS_270,c,VCS_70,a,VCS_350,d,4818,268488,VCS_70,a
A1PHDT66U6IK4Q,3,26,VCS_350,d,VCS_80,a,VCS_260,c,VCS_170,b,1800,271308,VCS_80,a
A1PHDT66U6IK4Q,3,27,VCS_160,b,VCS_80,a,VCS_340,d,VCS_240,c,4430,276758,VCS_80,a
A1PHDT66U6IK4Q,3,28,VCS_70,a,VCS_340,d,VCS_250,c,VCS_160,b,2769,280552,VCS_160,b
A1PHDT66U6IK4Q,3,29,VCS_90,a,VCS_270,c,VCS_360,d,VCS_180,b,8781,290338,VCS_360,d
A1PHDT66U6IK4Q,3,30,VCS_170,b,VCS_250,c,VCS_90,a,VCS_350,d,6698,298064,VCS_90,a
A1PHDT66U6IK4Q,3,31,VCS_80,a,VCS_180,b,VCS_340,d,VCS_260,c,4173,303240,VCS_340,d
A1SN7EOZUW5VP3,1,0,VCS_150,b,VCS_60,a,VCS_330,d,VCS_240,c,4306,89090,VCS_60,a
A1SN7EOZUW5VP3,1,1,VCS_170,b,VCS_350,d,VCS_80,a,VCS_260,c,5758,95865,VCS_260,c
A1SN7EOZUW5VP3,1,2,VCS_80,a,VCS_340,d,VCS_180,b,VCS_260,c,4096,100970,VCS_340,d
A1SN7EOZUW5VP3,1,3,VCS_160,b,VCS_340,d,VCS_60,a,VCS_260,c,2648,104632,VCS_260,c
A1SN7EOZUW5VP3,1,4,VCS_170,b,VCS_70,a,VCS_350,d,VCS_270,c,1771,107409,VCS_270,c
A1SN7EOZUW5VP3,1,5,VCS_70,a,VCS_170,b,VCS_330,d,VCS_250,c,1504,109929,VCS_330,d
A1SN7EOZUW5VP3,1,6,VCS_350,d,VCS_90,a,VCS_250,c,VCS_170,b,3184,114129,VCS_90,a
A1SN7EOZUW5VP3,1,7,VCS_260,c,VCS_340,d,VCS_80,a,VCS_180,b,6645,121784,VCS_180,b
A1SN7EOZUW5VP3,1,8,VCS_360,d,VCS_90,a,VCS_180,b,VCS_270,c,3120,125921,VCS_270,c
A1SN7EOZUW5VP3,1,9,VCS_250,c,VCS_70,a,VCS_160,b,VCS_340,d,2006,128937,VCS_340,d
A1SN7EOZUW5VP3,1,10,VCS_350,d,VCS_170,b,VCS_80,a,VCS_260,c,7007,136953,VCS_260,c
A1SN7EOZUW5VP3,1,11,VCS_80,a,VCS_260,c,VCS_160,b,VCS_360,d,5497,143456,VCS_360,d
A1SN7EOZUW5VP3,1,12,VCS_350,d,VCS_170,b,VCS_70,a,VCS_270,c,3520,147983,VCS_70,a
A1SN7EOZUW5VP3,1,13,VCS_340,d,VCS_80,a,VCS_240,c,VCS_160,b,1790,150784,VCS_80,a
A1SN7EOZUW5VP3,1,14,VCS_160,b,VCS_340,d,VCS_70,a,VCS_250,c,1138,152928,VCS_250,c
A1SN7EOZUW5VP3,1,15,VCS_160,b,VCS_240,c,VCS_340,d,VCS_80,a,1417,155352,VCS_240,c
A1SN7EOZUW5VP3,1,16,VCS_90,a,VCS_360,d,VCS_270,c,VCS_180,b,1111,157473,VCS_360,d
A1SN7EOZUW5VP3,1,17,VCS_250,c,VCS_150,b,VCS_70,a,VCS_350,d,1615,160096,VCS_150,b
A1SN7EOZUW5VP3,1,18,VCS_70,a,VCS_250,c,VCS_150,b,VCS_350,d,1280,162384,VCS_350,d
A1SN7EOZUW5VP3,1,19,VCS_170,b,VCS_350,d,VCS_250,c,VCS_90,a,968,164359,VCS_250,c
A1SN7EOZUW5VP3,1,20,VCS_260,c,VCS_170,b,VCS_80,a,VCS_350,d,1401,166767,VCS_170,b
A1SN7EOZUW5VP3,1,21,VCS_240,c,VCS_330,d,VCS_150,b,VCS_60,a,1894,169672,VCS_150,b
A1SN7EOZUW5VP3,1,22,VCS_250,c,VCS_330,d,VCS_170,b,VCS_70,a,1073,171816,VCS_170,b
A1SN7EOZUW5VP3,1,23,VCS_330,d,VCS_60,a,VCS_150,b,VCS_240,c,1556,174392,VCS_60,a
A1SN7EOZUW5VP3,1,24,VCS_180,b,VCS_360,d,VCS_90,a,VCS_270,c,1114,176513,VCS_270,c
A1SN7EOZUW5VP3,1,25,VCS_340,d,VCS_160,b,VCS_250,c,VCS_70,a,1022,178544,VCS_70,a
A1SN7EOZUW5VP3,1,26,VCS_260,c,VCS_160,b,VCS_360,d,VCS_80,a,1497,181047,VCS_160,b
A1SN7EOZUW5VP3,1,27,VCS_60,a,VCS_330,d,VCS_240,c,VCS_150,b,961,183024,VCS_330,d
A1SN7EOZUW5VP3,1,28,VCS_340,d,VCS_60,a,VCS_260,c,VCS_160,b,778,184807,VCS_60,a
A1SN7EOZUW5VP3,1,29,VCS_80,a,VCS_170,b,VCS_350,d,VCS_260,c,1619,187432,VCS_350,d
A1SN7EOZUW5VP3,1,30,VCS_270,c,VCS_180,b,VCS_360,d,VCS_90,a,2258,190704,VCS_180,b
A1SN7EOZUW5VP3,1,31,VCS_70,a,VCS_250,c,VCS_160,b,VCS_340,d,1058,192768,VCS_340,d
A25PFSORDO3SWQ,3,0,VCS_330,d,VCS_240,c,VCS_150,b,VCS_60,a,7704,68897,VCS_240,c
A25PFSORDO3SWQ,3,1,VCS_70,a,VCS_250,c,VCS_340,d,VCS_160,b,4096,74011,VCS_160,b
A25PFSORDO3SWQ,3,2,VCS_60,a,VCS_330,d,VCS_150,b,VCS_240,c,4331,79362,VCS_150,b
A25PFSORDO3SWQ,3,3,VCS_360,d,VCS_180,b,VCS_270,c,VCS_90,a,3249,83634,VCS_270,c
A25PFSORDO3SWQ,3,4,VCS_350,d,VCS_80,a,VCS_260,c,VCS_170,b,8385,93031,VCS_260,c
A25PFSORDO3SWQ,3,5,VCS_180,b,VCS_270,c,VCS_360,d,VCS_90,a,9015,103056,VCS_90,a
A25PFSORDO3SWQ,3,6,VCS_260,c,VCS_80,a,VCS_180,b,VCS_340,d,5724,109790,VCS_340,d
A25PFSORDO3SWQ,3,7,VCS_270,c,VCS_360,d,VCS_180,b,VCS_90,a,4231,115040,VCS_360,d
A25PFSORDO3SWQ,3,8,VCS_170,b,VCS_90,a,VCS_350,d,VCS_250,c,7547,123600,VCS_90,a
A25PFSORDO3SWQ,3,9,VCS_260,c,VCS_350,d,VCS_80,a,VCS_170,b,3986,128608,VCS_350,d
A25PFSORDO3SWQ,3,10,VCS_250,c,VCS_170,b,VCS_330,d,VCS_70,a,4574,134208,VCS_330,d
A25PFSORDO3SWQ,3,11,VCS_160,b,VCS_250,c,VCS_70,a,VCS_340,d,4220,139483,VCS_70,a
A25PFSORDO3SWQ,3,12,VCS_80,a,VCS_260,c,VCS_160,b,VCS_360,d,4522,145028,VCS_160,b
A25PFSORDO3SWQ,3,13,VCS_340,d,VCS_70,a,VCS_250,c,VCS_160,b,2160,148196,VCS_250,c
A25PFSORDO3SWQ,3,14,VCS_90,a,VCS_360,d,VCS_270,c,VCS_180,b,5002,154215,VCS_180,b
A25PFSORDO3SWQ,3,15,VCS_250,c,VCS_350,d,VCS_150,b,VCS_70,a,2786,158014,VCS_350,d
A25PFSORDO3SWQ,3,16,VCS_150,b,VCS_240,c,VCS_330,d,VCS_60,a,2882,161912,VCS_60,a
A25PFSORDO3SWQ,3,17,VCS_170,b,VCS_350,d,VCS_80,a,VCS_260,c,2753,165676,VCS_80,a
A25PFSORDO3SWQ,3,18,VCS_350,d,VCS_170,b,VCS_90,a,VCS_250,c,1268,167989,VCS_250,c
A25PFSORDO3SWQ,3,19,VCS_170,b,VCS_270,c,VCS_350,d,VCS_70,a,2091,171087,VCS_70,a
A25PFSORDO3SWQ,3,20,VCS_350,d,VCS_270,c,VCS_70,a,VCS_170,b,1727,173832,VCS_270,c
A25PFSORDO3SWQ,3,21,VCS_160,b,VCS_340,d,VCS_60,a,VCS_260,c,2406,177249,VCS_60,a
A25PFSORDO3SWQ,3,22,VCS_70,a,VCS_250,c,VCS_330,d,VCS_170,b,1999,180252,VCS_170,b
A25PFSORDO3SWQ,3,23,VCS_340,d,VCS_160,b,VCS_260,c,VCS_60,a,1148,182423,VCS_260,c
A25PFSORDO3SWQ,3,24,VCS_160,b,VCS_340,d,VCS_80,a,VCS_240,c,2015,185512,VCS_80,a
A25PFSORDO3SWQ,3,25,VCS_340,d,VCS_160,b,VCS_240,c,VCS_80,a,2467,188996,VCS_240,c
A25PFSORDO3SWQ,3,26,VCS_240,c,VCS_150,b,VCS_60,a,VCS_330,d,3885,193941,VCS_330,d
A25PFSORDO3SWQ,3,27,VCS_80,a,VCS_260,c,VCS_340,d,VCS_180,b,2800,197750,VCS_180,b
A25PFSORDO3SWQ,3,28,VCS_80,a,VCS_170,b,VCS_350,d,VCS_260,c,2460,201220,VCS_170,b
A25PFSORDO3SWQ,3,29,VCS_250,c,VCS_160,b,VCS_70,a,VCS_340,d,2217,204439,VCS_340,d
A25PFSORDO3SWQ,3,30,VCS_70,a,VCS_350,d,VCS_150,b,VCS_250,c,1924,207373,VCS_150,b
A25PFSORDO3SWQ,3,31,VCS_260,c,VCS_360,d,VCS_80,a,VCS_160,b,2952,211340,VCS_360,d
A29P011QEF23G8,1,0,VCS_80,a,VCS_170,b,VCS_260,c,VCS_350,d,5562,25358,VCS_170,b
A29P011QEF23G8,1,1,VCS_240,c,VCS_330,d,VCS_60,a,VCS_150,b,1220,27598,VCS_330,d
A29P011QEF23G8,1,2,VCS_260,c,VCS_170,b,VCS_350,d,VCS_80,a,1158,29775,VCS_350,d
A29P011QEF23G8,1,3,VCS_150,b,VCS_60,a,VCS_330,d,VCS_240,c,1276,32070,VCS_60,a
A29P011QEF23G8,1,4,VCS_90,a,VCS_360,d,VCS_180,b,VCS_270,c,2187,35270,VCS_180,b
A29P011QEF23G8,1,5,VCS_250,c,VCS_150,b,VCS_350,d,VCS_70,a,1260,37558,VCS_350,d
A29P011QEF23G8,1,6,VCS_170,b,VCS_250,c,VCS_350,d,VCS_90,a,2041,40614,VCS_90,a
A29P011QEF23G8,1,7,VCS_350,d,VCS_250,c,VCS_90,a,VCS_170,b,973,42606,VCS_250,c
A29P011QEF23G8,1,8,VCS_360,d,VCS_90,a,VCS_180,b,VCS_270,c,1061,44686,VCS_270,c
A29P011QEF23G8,1,9,VCS_270,c,VCS_180,b,VCS_360,d,VCS_90,a,920,46630,VCS_360,d
A29P011QEF23G8,1,10,VCS_170,b,VCS_270,c,VCS_70,a,VCS_350,d,1541,49182,VCS_70,a
A29P011QEF23G8,1,11,VCS_160,b,VCS_340,d,VCS_240,c,VCS_80,a,921,51134,VCS_80,a
A29P011QEF23G8,1,12,VCS_70,a,VCS_250,c,VCS_160,b,VCS_340,d,1044,53206,VCS_160,b
A29P011QEF23G8,1,13,VCS_60,a,VCS_240,c,VCS_150,b,VCS_330,d,640,54854,VCS_150,b
A29P011QEF23G8,1,14,VCS_340,d,VCS_70,a,VCS_160,b,VCS_250,c,1238,57110,VCS_250,c
A29P011QEF23G8,1,15,VCS_170,b,VCS_260,c,VCS_350,d,VCS_80,a,1156,59286,VCS_80,a
A29P011QEF23G8,1,16,VCS_180,b,VCS_360,d,VCS_270,c,VCS_90,a,1929,62238,VCS_90,a
A29P011QEF23G8,1,17,VCS_80,a,VCS_360,d,VCS_160,b,VCS_260,c,1846,65102,VCS_160,b
A29P011QEF23G8,1,18,VCS_350,d,VCS_170,b,VCS_70,a,VCS_270,c,876,66990,VCS_270,c
A29P011QEF23G8,1,19,VCS_250,c,VCS_170,b,VCS_330,d,VCS_70,a,996,68998,VCS_330,d
A29P011QEF23G8,1,20,VCS_70,a,VCS_250,c,VCS_350,d,VCS_150,b,883,70894,VCS_150,b
A29P011QEF23G8,1,21,VCS_340,d,VCS_240,c,VCS_80,a,VCS_160,b,1070,72974,VCS_240,c
A29P011QEF23G8,1,22,VCS_70,a,VCS_330,d,VCS_250,c,VCS_170,b,1123,75111,VCS_170,b
A29P011QEF23G8,1,23,VCS_80,a,VCS_180,b,VCS_340,d,VCS_260,c,2195,78310,VCS_180,b
A29P011QEF23G8,1,24,VCS_160,b,VCS_60,a,VCS_260,c,VCS_340,d,712,80054,VCS_60,a
A29P011QEF23G8,1,25,VCS_330,d,VCS_240,c,VCS_150,b,VCS_60,a,1501,82574,VCS_240,c
A29P011QEF23G8,1,26,VCS_250,c,VCS_340,d,VCS_70,a,VCS_160,b,883,84478,VCS_340,d
A29P011QEF23G8,1,27,VCS_260,c,VCS_360,d,VCS_80,a,VCS_160,b,757,86262,VCS_360,d
A29P011QEF23G8,1,28,VCS_350,d,VCS_260,c,VCS_80,a,VCS_170,b,715,87998,VCS_260,c
A29P011QEF23G8,1,29,VCS_160,b,VCS_250,c,VCS_340,d,VCS_70,a,1000,90014,VCS_70,a
A29P011QEF23G8,1,30,VCS_260,c,VCS_340,d,VCS_180,b,VCS_80,a,780,91806,VCS_340,d
A29P011QEF23G8,1,31,VCS_340,d,VCS_60,a,VCS_160,b,VCS_260,c,630,93446,VCS_60,a
A2BL4RTTHHBA72,1,0,VCS_90,a,VCS_270,c,VCS_180,b,VCS_360,d,1225,7283,VCS_180,b
A2BL4RTTHHBA72,1,1,VCS_150,b,VCS_60,a,VCS_240,c,VCS_330,d,1326,9975,VCS_240,c
A2BL4RTTHHBA72,1,2,VCS_250,c,VCS_350,d,VCS_150,b,VCS_70,a,777,11825,VCS_150,b
A2BL4RTTHHBA72,1,3,VCS_250,c,VCS_70,a,VCS_330,d,VCS_170,b,858,13848,VCS_170,b
A2BL4RTTHHBA72,1,4,VCS_70,a,VCS_350,d,VCS_150,b,VCS_250,c,1099,16014,VCS_250,c
A2BL4RTTHHBA72,1,5,VCS_260,c,VCS_170,b,VCS_80,a,VCS_350,d,823,17840,VCS_80,a
A2BL4RTTHHBA72,1,6,VCS_250,c,VCS_70,a,VCS_340,d,VCS_160,b,522,19504,VCS_70,a
A2BL4RTTHHBA72,1,7,VCS_60,a,VCS_240,c,VCS_150,b,VCS_330,d,172,20905,VCS_150,b
A2BL4RTTHHBA72,1,8,VCS_160,b,VCS_80,a,VCS_340,d,VCS_240,c,490,22537,VCS_240,c
A2BL4RTTHHBA72,1,9,VCS_170,b,VCS_70,a,VCS_270,c,VCS_350,d,535,24137,VCS_270,c
A2BL4RTTHHBA72,1,10,VCS_160,b,VCS_250,c,VCS_70,a,VCS_340,d,445,25605,VCS_340,d
A2BL4RTTHHBA72,1,11,VCS_80,a,VCS_340,d,VCS_180,b,VCS_260,c,349,27232,VCS_180,b
A2BL4RTTHHBA72,1,12,VCS_170,b,VCS_350,d,VCS_260,c,VCS_80,a,1868,30296,VCS_260,c
A2BL4RTTHHBA72,1,13,VCS_340,d,VCS_240,c,VCS_160,b,VCS_80,a,1519,32842,VCS_80,a
A2BL4RTTHHBA72,1,14,VCS_70,a,VCS_160,b,VCS_250,c,VCS_340,d,1141,35305,VCS_340,d
A2BL4RTTHHBA72,1,15,VCS_360,d,VCS_270,c,VCS_180,b,VCS_90,a,848,37257,VCS_90,a
A2BL4RTTHHBA72,1,16,VCS_270,c,VCS_180,b,VCS_90,a,VCS_360,d,816,39133,VCS_90,a
A2BL4RTTHHBA72,1,17,VCS_350,d,VCS_260,c,VCS_80,a,VCS_170,b,632,40791,VCS_170,b
A2BL4RTTHHBA72,1,18,VCS_260,c,VCS_80,a,VCS_180,b,VCS_340,d,297,42198,VCS_180,b
A2BL4RTTHHBA72,1,19,VCS_160,b,VCS_340,d,VCS_60,a,VCS_260,c,673,43888,VCS_60,a
A2BL4RTTHHBA72,1,20,VCS_350,d,VCS_170,b,VCS_70,a,VCS_270,c,1106,46001,VCS_270,c
A2BL4RTTHHBA72,1,21,VCS_340,d,VCS_160,b,VCS_250,c,VCS_70,a,1519,48749,VCS_70,a
A2BL4RTTHHBA72,1,22,VCS_260,c,VCS_160,b,VCS_360,d,VCS_80,a,1364,51120,VCS_80,a
A2BL4RTTHHBA72,1,23,VCS_80,a,VCS_160,b,VCS_360,d,VCS_260,c,1439,53577,VCS_160,b
A2BL4RTTHHBA72,1,24,VCS_350,d,VCS_250,c,VCS_170,b,VCS_90,a,880,55460,VCS_90,a
A2BL4RTTHHBA72,1,25,VCS_170,b,VCS_250,c,VCS_350,d,VCS_90,a,1156,57645,VCS_250,c
A2BL4RTTHHBA72,1,26,VCS_180,b,VCS_90,a,VCS_270,c,VCS_360,d,893,59704,VCS_270,c
A2BL4RTTHHBA72,1,27,VCS_70,a,VCS_250,c,VCS_330,d,VCS_170,b,707,61417,VCS_170,b
A2BL4RTTHHBA72,1,28,VCS_240,c,VCS_330,d,VCS_60,a,VCS_150,b,926,63464,VCS_150,b
A2BL4RTTHHBA72,1,29,VCS_330,d,VCS_240,c,VCS_60,a,VCS_150,b,1007,65563,VCS_60,a
A2BL4RTTHHBA72,1,30,VCS_80,a,VCS_260,c,VCS_350,d,VCS_170,b,1065,67644,VCS_350,d
A2BL4RTTHHBA72,1,31,VCS_340,d,VCS_260,c,VCS_60,a,VCS_160,b,929,69593,VCS_60,a
A2EI075XZT9Y2S,3,0,VCS_250,c,VCS_350,d,VCS_150,b,VCS_70,a,2771,22443,VCS_150,b
A2EI075XZT9Y2S,3,1,VCS_170,b,VCS_350,d,VCS_270,c,VCS_70,a,1794,25247,VCS_70,a
A2EI075XZT9Y2S,3,2,VCS_170,b,VCS_260,c,VCS_350,d,VCS_80,a,2251,28520,VCS_80,a
A2EI075XZT9Y2S,3,3,VCS_80,a,VCS_160,b,VCS_260,c,VCS_360,d,954,30487,VCS_160,b
A2EI075XZT9Y2S,3,4,VCS_80,a,VCS_350,d,VCS_260,c,VCS_170,b,1637,33138,VCS_170,b
A2EI075XZT9Y2S,3,5,VCS_90,a,VCS_270,c,VCS_360,d,VCS_180,b,1071,35222,VCS_180,b
A2EI075XZT9Y2S,3,6,VCS_240,c,VCS_60,a,VCS_150,b,VCS_330,d,2168,38413,VCS_60,a
A2EI075XZT9Y2S,3,7,VCS_80,a,VCS_180,b,VCS_260,c,VCS_340,d,2000,41419,VCS_180,b
A2EI075XZT9Y2S,3,8,VCS_180,b,VCS_270,c,VCS_90,a,VCS_360,d,1004,43434,VCS_90,a
A2EI075XZT9Y2S,3,9,VCS_150,b,VCS_60,a,VCS_330,d,VCS_240,c,1166,45618,VCS_60,a
A2EI075XZT9Y2S,3,10,VCS_350,d,VCS_170,b,VCS_70,a,VCS_270,c,1564,48193,VCS_270,c
A2EI075XZT9Y2S,3,11,VCS_330,d,VCS_150,b,VCS_60,a,VCS_240,c,1648,50863,VCS_240,c
A2EI075XZT9Y2S,3,12,VCS_70,a,VCS_250,c,VCS_340,d,VCS_160,b,1335,53205,VCS_160,b
A2EI075XZT9Y2S,3,13,VCS_250,c,VCS_340,d,VCS_70,a,VCS_160,b,3691,57917,VCS_340,d
A2EI075XZT9Y2S,3,14,VCS_170,b,VCS_90,a,VCS_350,d,VCS_250,c,941,59861,VCS_90,a
A2EI075XZT9Y2S,3,15,VCS_350,d,VCS_80,a,VCS_260,c,VCS_170,b,1091,61970,VCS_260,c
A2EI075XZT9Y2S,3,16,VCS_340,d,VCS_260,c,VCS_60,a,VCS_160,b,1045,64035,VCS_260,c
A2EI075XZT9Y2S,3,17,VCS_340,d,VCS_80,a,VCS_160,b,VCS_240,c,1618,66673,VCS_240,c
A2EI075XZT9Y2S,3,18,VCS_250,c,VCS_330,d,VCS_170,b,VCS_70,a,1107,68802,VCS_330,d
A2EI075XZT9Y2S,3,19,VCS_340,d,VCS_250,c,VCS_70,a,VCS_160,b,1159,70972,VCS_250,c
A2EI075XZT9Y2S,3,20,VCS_70,a,VCS_350,d,VCS_150,b,VCS_250,c,914,72902,VCS_150,b
A2EI075XZT9Y2S,3,21,VCS_260,c,VCS_80,a,VCS_360,d,VCS_160,b,1062,74988,VCS_360,d
A2EI075XZT9Y2S,3,22,VCS_60,a,VCS_330,d,VCS_150,b,VCS_240,c,1025,77031,VCS_150,b
A2EI075XZT9Y2S,3,23,VCS_160,b,VCS_340,d,VCS_80,a,VCS_240,c,943,78998,VCS_80,a
A2EI075XZT9Y2S,3,24,VCS_360,d,VCS_180,b,VCS_270,c,VCS_90,a,1606,81617,VCS_270,c
A2EI075XZT9Y2S,3,25,VCS_260,c,VCS_180,b,VCS_340,d,VCS_80,a,1127,83761,VCS_340,d
A2EI075XZT9Y2S,3,26,VCS_70,a,VCS_250,c,VCS_330,d,VCS_170,b,1005,85791,VCS_170,b
A2EI075XZT9Y2S,3,27,VCS_350,d,VCS_250,c,VCS_170,b,VCS_90,a,1043,87849,VCS_250,c
A2EI075XZT9Y2S,3,28,VCS_270,c,VCS_180,b,VCS_90,a,VCS_360,d,914,89782,VCS_360,d
A2EI075XZT9Y2S,3,29,VCS_160,b,VCS_60,a,VCS_260,c,VCS_340,d,2150,92948,VCS_60,a
A2EI075XZT9Y2S,3,30,VCS_160,b,VCS_70,a,VCS_250,c,VCS_340,d,1850,95822,VCS_70,a
A2EI075XZT9Y2S,3,31,VCS_260,c,VCS_350,d,VCS_80,a,VCS_170,b,2471,99305,VCS_350,d
A2FP41BSPG0Y4A,3,0,VCS_340,d,VCS_80,a,VCS_240,c,VCS_160,b,4091,108765,VCS_240,c
A2FP41BSPG0Y4A,3,1,VCS_250,c,VCS_70,a,VCS_170,b,VCS_330,d,1434,111203,VCS_330,d
A2FP41BSPG0Y4A,3,2,VCS_80,a,VCS_180,b,VCS_340,d,VCS_260,c,4370,116576,VCS_260,c
A2FP41BSPG0Y4A,3,3,VCS_80,a,VCS_170,b,VCS_260,c,VCS_350,d,5626,123213,VCS_170,b
A2FP41BSPG0Y4A,3,4,VCS_160,b,VCS_250,c,VCS_340,d,VCS_70,a,2380,126604,VCS_70,a
A2FP41BSPG0Y4A,3,5,VCS_80,a,VCS_360,d,VCS_260,c,VCS_160,b,2458,130074,VCS_360,d
A2FP41BSPG0Y4A,3,6,VCS_160,b,VCS_240,c,VCS_80,a,VCS_340,d,1358,132456,VCS_80,a
A2FP41BSPG0Y4A,3,7,VCS_240,c,VCS_60,a,VCS_150,b,VCS_330,d,1158,134624,VCS_330,d
A2FP41BSPG0Y4A,3,8,VCS_70,a,VCS_250,c,VCS_170,b,VCS_330,d,1338,136967,VCS_330,d
A2FP41BSPG0Y4A,3,9,VCS_340,d,VCS_250,c,VCS_70,a,VCS_160,b,709,138687,VCS_70,a
A2FP41BSPG0Y4A,3,10,VCS_340,d,VCS_260,c,VCS_60,a,VCS_160,b,674,140380,VCS_60,a
A2FP41BSPG0Y4A,3,11,VCS_170,b,VCS_350,d,VCS_90,a,VCS_250,c,668,142068,VCS_90,a
A2FP41BSPG0Y4A,3,12,VCS_360,d,VCS_270,c,VCS_180,b,VCS_90,a,1952,145043,VCS_270,c
A2FP41BSPG0Y4A,3,13,VCS_70,a,VCS_250,c,VCS_160,b,VCS_340,d,850,146899,VCS_340,d
A2FP41BSPG0Y4A,3,14,VCS_160,b,VCS_60,a,VCS_260,c,VCS_340,d,2479,150392,VCS_60,a
A2FP41BSPG0Y4A,3,15,VCS_170,b,VCS_270,c,VCS_350,d,VCS_70,a,7424,158844,VCS_70,a
A2FP41BSPG0Y4A,3,16,VCS_150,b,VCS_240,c,VCS_60,a,VCS_330,d,6635,166504,VCS_240,c
A2FP41BSPG0Y4A,3,17,VCS_270,c,VCS_180,b,VCS_360,d,VCS_90,a,12057,179586,VCS_360,d
A2FP41BSPG0Y4A,3,18,VCS_330,d,VCS_150,b,VCS_240,c,VCS_60,a,1076,181690,VCS_240,c
A2FP41BSPG0Y4A,3,19,VCS_60,a,VCS_240,c,VCS_150,b,VCS_330,d,800,183506,VCS_330,d
A2FP41BSPG0Y4A,3,20,VCS_90,a,VCS_360,d,VCS_270,c,VCS_180,b,739,185248,VCS_270,c
A2FP41BSPG0Y4A,3,21,VCS_260,c,VCS_80,a,VCS_180,b,VCS_340,d,2340,188598,VCS_80,a
A2FP41BSPG0Y4A,3,22,VCS_250,c,VCS_70,a,VCS_150,b,VCS_350,d,3578,193180,VCS_350,d
A2FP41BSPG0Y4A,3,23,VCS_260,c,VCS_350,d,VCS_170,b,VCS_80,a,1591,195796,VCS_350,d
A2FP41BSPG0Y4A,3,24,VCS_260,c,VCS_160,b,VCS_80,a,VCS_360,d,1675,198482,VCS_360,d
A2FP41BSPG0Y4A,3,25,VCS_350,d,VCS_250,c,VCS_170,b,VCS_90,a,1965,201466,VCS_170,b
A2FP41BSPG0Y4A,3,26,VCS_180,b,VCS_270,c,VCS_360,d,VCS_90,a,1725,204216,VCS_270,c
A2FP41BSPG0Y4A,3,27,VCS_170,b,VCS_80,a,VCS_260,c,VCS_350,d,4140,209358,VCS_80,a
A2FP41BSPG0Y4A,3,28,VCS_250,c,VCS_70,a,VCS_340,d,VCS_160,b,1930,212309,VCS_340,d
A2FP41BSPG0Y4A,3,29,VCS_350,d,VCS_170,b,VCS_80,a,VCS_260,c,1476,214803,VCS_260,c
A2FP41BSPG0Y4A,3,30,VCS_70,a,VCS_350,d,VCS_250,c,VCS_150,b,1285,217107,VCS_350,d
A2FP41BSPG0Y4A,3,31,VCS_350,d,VCS_270,c,VCS_170,b,VCS_70,a,888,219002,VCS_70,a
A2KDYSLV030FVX,3,0,VCS_170,b,VCS_250,c,VCS_90,a,VCS_350,d,1318,19999,VCS_250,c
A2KDYSLV030FVX,3,1,VCS_260,c,VCS_340,d,VCS_180,b,VCS_80,a,875,21901,VCS_340,d
A2KDYSLV030FVX,3,2,VCS_160,b,VCS_260,c,VCS_340,d,VCS_60,a,959,23885,VCS_260,c
A2KDYSLV030FVX,3,3,VCS_340,d,VCS_250,c,VCS_160,b,VCS_70,a,958,25861,VCS_70,a
A2KDYSLV030FVX,3,4,VCS_260,c,VCS_80,a,VCS_350,d,VCS_170,b,930,27821,VCS_80,a
A2KDYSLV030FVX,3,5,VCS_70,a,VCS_170,b,VCS_330,d,VCS_250,c,898,29725,VCS_170,b
A2KDYSLV030FVX,3,6,VCS_160,b,VCS_250,c,VCS_340,d,VCS_70,a,905,31638,VCS_70,a
A2KDYSLV030FVX,3,7,VCS_70,a,VCS_340,d,VCS_160,b,VCS_250,c,951,33605,VCS_340,d
A2KDYSLV030FVX,3,8,VCS_350,d,VCS_170,b,VCS_260,c,VCS_80,a,1070,35693,VCS_80,a
A2KDYSLV030FVX,3,9,VCS_80,a,VCS_350,d,VCS_260,c,VCS_170,b,908,37606,VCS_350,d
A2KDYSLV030FVX,3,10,VCS_70,a,VCS_350,d,VCS_150,b,VCS_250,c,803,39429,VCS_350,d
A2KDYSLV030FVX,3,11,VCS_340,d,VCS_240,c,VCS_80,a,VCS_160,b,825,41267,VCS_240,c
A2KDYSLV030FVX,3,12,VCS_350,d,VCS_250,c,VCS_170,b,VCS_90,a,877,43157,VCS_250,c
A2KDYSLV030FVX,3,13,VCS_160,b,VCS_240,c,VCS_340,d,VCS_80,a,826,45005,VCS_80,a
A2KDYSLV030FVX,3,14,VCS_170,b,VCS_350,d,VCS_80,a,VCS_260,c,1931,47965,VCS_260,c
A2KDYSLV030FVX,3,15,VCS_340,d,VCS_160,b,VCS_60,a,VCS_260,c,1127,50101,VCS_260,c
A2KDYSLV030FVX,3,16,VCS_250,c,VCS_350,d,VCS_70,a,VCS_150,b,1109,52213,VCS_350,d
A2KDYSLV030FVX,3,17,VCS_90,a,VCS_270,c,VCS_360,d,VCS_180,b,885,54117,VCS_270,c
A2KDYSLV030FVX,3,18,VCS_60,a,VCS_240,c,VCS_150,b,VCS_330,d,1224,56349,VCS_330,d
A2KDYSLV030FVX,3,19,VCS_350,d,VCS_170,b,VCS_270,c,VCS_70,a,991,58365,VCS_70,a
A2KDYSLV030FVX,3,20,VCS_260,c,VCS_160,b,VCS_360,d,VCS_80,a,1126,60518,VCS_360,d
A2KDYSLV030FVX,3,21,VCS_250,c,VCS_160,b,VCS_70,a,VCS_340,d,1016,62565,VCS_340,d
A2KDYSLV030FVX,3,22,VCS_80,a,VCS_360,d,VCS_260,c,VCS_160,b,1027,64613,VCS_260,c
A2KDYSLV030FVX,3,23,VCS_80,a,VCS_180,b,VCS_340,d,VCS_260,c,1059,66677,VCS_340,d
A2KDYSLV030FVX,3,24,VCS_170,b,VCS_70,a,VCS_270,c,VCS_350,d,1035,68733,VCS_270,c
A2KDYSLV030FVX,3,25,VCS_150,b,VCS_330,d,VCS_240,c,VCS_60,a,1039,70781,VCS_330,d
A2KDYSLV030FVX,3,26,VCS_180,b,VCS_270,c,VCS_90,a,VCS_360,d,1012,72822,VCS_90,a
A2KDYSLV030FVX,3,27,VCS_250,c,VCS_330,d,VCS_170,b,VCS_70,a,1080,74909,VCS_70,a
A2KDYSLV030FVX,3,28,VCS_240,c,VCS_60,a,VCS_150,b,VCS_330,d,904,76837,VCS_150,b
A2KDYSLV030FVX,3,29,VCS_270,c,VCS_90,a,VCS_360,d,VCS_180,b,1429,79285,VCS_360,d
A2KDYSLV030FVX,3,30,VCS_360,d,VCS_270,c,VCS_90,a,VCS_180,b,979,81269,VCS_270,c
A2KDYSLV030FVX,3,31,VCS_330,d,VCS_240,c,VCS_60,a,VCS_150,b,1004,83285,VCS_60,a
A2M183CETUMR96,3,0,VCS_270,c,VCS_360,d,VCS_90,a,VCS_180,b,1843,20581,VCS_360,d
A2M183CETUMR96,3,1,VCS_160,b,VCS_70,a,VCS_250,c,VCS_340,d,2425,24007,VCS_70,a
A2M183CETUMR96,3,2,VCS_340,d,VCS_70,a,VCS_250,c,VCS_160,b,1604,26613,VCS_250,c
A2M183CETUMR96,3,3,VCS_260,c,VCS_80,a,VCS_350,d,VCS_170,b,916,28531,VCS_350,d
A2M183CETUMR96,3,4,VCS_240,c,VCS_150,b,VCS_60,a,VCS_330,d,3067,32599,VCS_330,d
A2M183CETUMR96,3,5,VCS_250,c,VCS_160,b,VCS_340,d,VCS_70,a,2779,36380,VCS_340,d
A2M183CETUMR96,3,6,VCS_250,c,VCS_70,a,VCS_350,d,VCS_150,b,2033,39415,VCS_350,d
A2M183CETUMR96,3,7,VCS_90,a,VCS_360,d,VCS_180,b,VCS_270,c,2684,43101,VCS_180,b
A2M183CETUMR96,3,8,VCS_170,b,VCS_350,d,VCS_70,a,VCS_270,c,2312,46415,VCS_70,a
A2M183CETUMR96,3,9,VCS_340,d,VCS_160,b,VCS_80,a,VCS_240,c,1235,48652,VCS_240,c
A2M183CETUMR96,3,10,VCS_360,d,VCS_270,c,VCS_90,a,VCS_180,b,929,50583,VCS_270,c
A2M183CETUMR96,3,11,VCS_330,d,VCS_240,c,VCS_150,b,VCS_60,a,1366,52950,VCS_240,c
A2M183CETUMR96,3,12,VCS_170,b,VCS_90,a,VCS_250,c,VCS_350,d,1549,55500,VCS_90,a
A2M183CETUMR96,3,13,VCS_160,b,VCS_340,d,VCS_240,c,VCS_80,a,1288,57789,VCS_80,a
A2M183CETUMR96,3,14,VCS_70,a,VCS_160,b,VCS_250,c,VCS_340,d,952,59742,VCS_160,b
A2M183CETUMR96,3,15,VCS_170,b,VCS_80,a,VCS_260,c,VCS_350,d,1094,61837,VCS_80,a
A2M183CETUMR96,3,16,VCS_350,d,VCS_70,a,VCS_270,c,VCS_170,b,1830,64668,VCS_270,c
A2M183CETUMR96,3,17,VCS_180,b,VCS_360,d,VCS_90,a,VCS_270,c,1333,67003,VCS_90,a
A2M183CETUMR96,3,18,VCS_350,d,VCS_80,a,VCS_170,b,VCS_260,c,934,68939,VCS_260,c
A2M183CETUMR96,3,19,VCS_260,c,VCS_360,d,VCS_80,a,VCS_160,b,855,70795,VCS_360,d
A2M183CETUMR96,3,20,VCS_80,a,VCS_170,b,VCS_260,c,VCS_350,d,936,72732,VCS_170,b
A2M183CETUMR96,3,21,VCS_80,a,VCS_160,b,VCS_360,d,VCS_260,c,1042,74775,VCS_160,b
A2M183CETUMR96,3,22,VCS_80,a,VCS_260,c,VCS_180,b,VCS_340,d,879,76655,VCS_180,b
A2M183CETUMR96,3,23,VCS_260,c,VCS_180,b,VCS_80,a,VCS_340,d,921,78578,VCS_340,d
A2M183CETUMR96,3,24,VCS_150,b,VCS_60,a,VCS_240,c,VCS_330,d,1394,80973,VCS_60,a
A2M183CETUMR96,3,25,VCS_340,d,VCS_160,b,VCS_60,a,VCS_260,c,898,82873,VCS_260,c
A2M183CETUMR96,3,26,VCS_70,a,VCS_150,b,VCS_350,d,VCS_250,c,769,84643,VCS_150,b
A2M183CETUMR96,3,27,VCS_60,a,VCS_150,b,VCS_330,d,VCS_240,c,974,86619,VCS_150,b
A2M183CETUMR96,3,28,VCS_160,b,VCS_60,a,VCS_260,c,VCS_340,d,1342,88963,VCS_60,a
A2M183CETUMR96,3,29,VCS_70,a,VCS_250,c,VCS_170,b,VCS_330,d,1064,91028,VCS_170,b
A2M183CETUMR96,3,30,VCS_250,c,VCS_70,a,VCS_170,b,VCS_330,d,1678,93707,VCS_330,d
A2M183CETUMR96,3,31,VCS_350,d,VCS_250,c,VCS_170,b,VCS_90,a,1087,95797,VCS_250,c
A2NAKIXS3DVGAA,1,0,VCS_180,b,VCS_360,d,VCS_90,a,VCS_270,c,2470,14103,VCS_90,a
A2NAKIXS3DVGAA,1,1,VCS_250,c,VCS_70,a,VCS_330,d,VCS_170,b,857,16006,VCS_330,d
A2NAKIXS3DVGAA,1,2,VCS_260,c,VCS_170,b,VCS_80,a,VCS_350,d,858,17873,VCS_350,d
A2NAKIXS3DVGAA,1,3,VCS_150,b,VCS_330,d,VCS_60,a,VCS_240,c,1782,20661,VCS_60,a
A2NAKIXS3DVGAA,1,4,VCS_250,c,VCS_150,b,VCS_350,d,VCS_70,a,711,22379,VCS_350,d
A2NAKIXS3DVGAA,1,5,VCS_340,d,VCS_160,b,VCS_240,c,VCS_80,a,675,24063,VCS_240,c
A2NAKIXS3DVGAA,1,6,VCS_170,b,VCS_90,a,VCS_350,d,VCS_250,c,1154,26230,VCS_90,a
A2NAKIXS3DVGAA,1,7,VCS_250,c,VCS_70,a,VCS_340,d,VCS_160,b,751,27989,VCS_340,d
A2NAKIXS3DVGAA,1,8,VCS_350,d,VCS_250,c,VCS_90,a,VCS_170,b,881,29917,VCS_250,c
A2NAKIXS3DVGAA,1,9,VCS_260,c,VCS_180,b,VCS_340,d,VCS_80,a,676,31603,VCS_340,d
A2NAKIXS3DVGAA,1,10,VCS_90,a,VCS_180,b,VCS_360,d,VCS_270,c,785,33404,VCS_180,b
A2NAKIXS3DVGAA,1,11,VCS_80,a,VCS_340,d,VCS_260,c,VCS_180,b,748,35181,VCS_180,b
A2NAKIXS3DVGAA,1,12,VCS_240,c,VCS_150,b,VCS_60,a,VCS_330,d,876,37074,VCS_330,d
A2NAKIXS3DVGAA,1,13,VCS_350,d,VCS_170,b,VCS_70,a,VCS_270,c,655,38774,VCS_270,c
A2NAKIXS3DVGAA,1,14,VCS_160,b,VCS_240,c,VCS_80,a,VCS_340,d,639,40432,VCS_80,a
A2NAKIXS3DVGAA,1,15,VCS_70,a,VCS_160,b,VCS_250,c,VCS_340,d,951,42420,VCS_160,b
A2NAKIXS3DVGAA,1,16,VCS_160,b,VCS_340,d,VCS_60,a,VCS_260,c,759,44222,VCS_60,a
A2NAKIXS3DVGAA,1,17,VCS_350,d,VCS_260,c,VCS_170,b,VCS_80,a,918,46143,VCS_260,c
A2NAKIXS3DVGAA,1,18,VCS_70,a,VCS_250,c,VCS_330,d,VCS_170,b,1030,48179,VCS_170,b
A2NAKIXS3DVGAA,1,19,VCS_340,d,VCS_70,a,VCS_160,b,VCS_250,c,1018,50204,VCS_250,c
A2NAKIXS3DVGAA,1,20,VCS_60,a,VCS_150,b,VCS_240,c,VCS_330,d,1057,52276,VCS_150,b
A2NAKIXS3DVGAA,1,21,VCS_70,a,VCS_150,b,VCS_350,d,VCS_250,c,610,53889,VCS_150,b
A2NAKIXS3DVGAA,1,22,VCS_170,b,VCS_80,a,VCS_260,c,VCS_350,d,599,55539,VCS_80,a
A2NAKIXS3DVGAA,1,23,VCS_160,b,VCS_340,d,VCS_250,c,VCS_70,a,835,57388,VCS_70,a
A2NAKIXS3DVGAA,1,24,VCS_170,b,VCS_350,d,VCS_270,c,VCS_70,a,610,59007,VCS_70,a
A2NAKIXS3DVGAA,1,25,VCS_80,a,VCS_360,d,VCS_260,c,VCS_160,b,710,60742,VCS_160,b
A2NAKIXS3DVGAA,1,26,VCS_340,d,VCS_60,a,VCS_160,b,VCS_260,c,1313,63063,VCS_260,c
A2NAKIXS3DVGAA,1,27,VCS_80,a,VCS_260,c,VCS_170,b,VCS_350,d,602,64694,VCS_170,b
A2NAKIXS3DVGAA,1,28,VCS_270,c,VCS_360,d,VCS_90,a,VCS_180,b,620,66322,VCS_360,d
A2NAKIXS3DVGAA,1,29,VCS_330,d,VCS_150,b,VCS_240,c,VCS_60,a,1030,68388,VCS_240,c
A2NAKIXS3DVGAA,1,30,VCS_360,d,VCS_270,c,VCS_90,a,VCS_180,b,616,70017,VCS_270,c
A2NAKIXS3DVGAA,1,31,VCS_260,c,VCS_80,a,VCS_360,d,VCS_160,b,622,71679,VCS_360,d
A2NMAOYBBJTO0R,1,0,VCS_150,b,VCS_60,a,VCS_240,c,VCS_330,d,2115,9682,VCS_240,c
A2NMAOYBBJTO0R,1,1,VCS_70,a,VCS_250,c,VCS_170,b,VCS_330,d,775,11481,VCS_330,d
A2NMAOYBBJTO0R,1,2,VCS_340,d,VCS_250,c,VCS_160,b,VCS_70,a,1620,14121,VCS_70,a
A2NMAOYBBJTO0R,1,3,VCS_330,d,VCS_240,c,VCS_60,a,VCS_150,b,613,15761,VCS_60,a
A2NMAOYBBJTO0R,1,4,VCS_70,a,VCS_150,b,VCS_350,d,VCS_250,c,1297,18073,VCS_350,d
A2NMAOYBBJTO0R,1,5,VCS_60,a,VCS_150,b,VCS_330,d,VCS_240,c,1301,20385,VCS_330,d
A2NMAOYBBJTO0R,1,6,VCS_260,c,VCS_80,a,VCS_360,d,VCS_160,b,1354,22761,VCS_360,d
A2NMAOYBBJTO0R,1,7,VCS_80,a,VCS_260,c,VCS_170,b,VCS_350,d,1522,25297,VCS_350,d
A2NMAOYBBJTO0R,1,8,VCS_350,d,VCS_170,b,VCS_70,a,VCS_270,c,1369,27681,VCS_70,a
A2NMAOYBBJTO0R,1,9,VCS_170,b,VCS_350,d,VCS_70,a,VCS_270,c,2857,31561,VCS_270,c
A2NMAOYBBJTO0R,1,10,VCS_160,b,VCS_60,a,VCS_340,d,VCS_260,c,2570,35177,VCS_260,c
A2NMAOYBBJTO0R,1,11,VCS_260,c,VCS_80,a,VCS_340,d,VCS_180,b,2400,38593,VCS_340,d
A2NMAOYBBJTO0R,1,12,VCS_180,b,VCS_90,a,VCS_360,d,VCS_270,c,1440,41049,VCS_90,a
A2NMAOYBBJTO0R,1,13,VCS_260,c,VCS_170,b,VCS_80,a,VCS_350,d,862,42921,VCS_350,d
A2NMAOYBBJTO0R,1,14,VCS_170,b,VCS_250,c,VCS_350,d,VCS_90,a,1444,45417,VCS_250,c
A2NMAOYBBJTO0R,1,15,VCS_250,c,VCS_70,a,VCS_160,b,VCS_340,d,1317,47769,VCS_340,d
A2NMAOYBBJTO0R,1,16,VCS_80,a,VCS_260,c,VCS_340,d,VCS_180,b,811,49586,VCS_340,d
A2NMAOYBBJTO0R,1,17,VCS_240,c,VCS_150,b,VCS_330,d,VCS_60,a,4632,55249,VCS_330,d
A2NMAOYBBJTO0R,1,18,VCS_160,b,VCS_340,d,VCS_70,a,VCS_250,c,691,56961,VCS_250,c
A2NMAOYBBJTO0R,1,19,VCS_80,a,VCS_160,b,VCS_260,c,VCS_360,d,803,58793,VCS_360,d
A2NMAOYBBJTO0R,1,20,VCS_350,d,VCS_170,b,VCS_90,a,VCS_250,c,2020,61825,VCS_90,a
A2NMAOYBBJTO0R,1,21,VCS_350,d,VCS_80,a,VCS_260,c,VCS_170,b,820,63689,VCS_80,a
A2NMAOYBBJTO0R,1,22,VCS_70,a,VCS_250,c,VCS_340,d,VCS_160,b,766,65465,VCS_340,d
A2NMAOYBBJTO0R,1,23,VCS_360,d,VCS_270,c,VCS_180,b,VCS_90,a,1806,68297,VCS_90,a
A2NMAOYBBJTO0R,1,24,VCS_250,c,VCS_170,b,VCS_70,a,VCS_330,d,1353,70673,VCS_330,d
A2NMAOYBBJTO0R,1,25,VCS_90,a,VCS_180,b,VCS_360,d,VCS_270,c,1039,72729,VCS_270,c
A2NMAOYBBJTO0R,1,26,VCS_160,b,VCS_240,c,VCS_80,a,VCS_340,d,4228,77969,VCS_240,c
A2NMAOYBBJTO0R,1,27,VCS_340,d,VCS_80,a,VCS_240,c,VCS_160,b,890,79881,VCS_80,a
A2NMAOYBBJTO0R,1,28,VCS_340,d,VCS_260,c,VCS_160,b,VCS_60,a,802,81697,VCS_60,a
A2NMAOYBBJTO0R,1,29,VCS_170,b,VCS_80,a,VCS_350,d,VCS_260,c,761,83489,VCS_260,c
A2NMAOYBBJTO0R,1,30,VCS_250,c,VCS_150,b,VCS_350,d,VCS_70,a,1128,85641,VCS_150,b
A2NMAOYBBJTO0R,1,31,VCS_270,c,VCS_180,b,VCS_90,a,VCS_360,d,1398,88057,VCS_360,d
A2TR30V5KYFFSI,1,0,VCS_160,b,VCS_240,c,VCS_340,d,VCS_80,a,2534,36984,VCS_80,a
A2TR30V5KYFFSI,1,1,VCS_360,d,VCS_90,a,VCS_270,c,VCS_180,b,1825,39828,VCS_270,c
A2TR30V5KYFFSI,1,2,VCS_170,b,VCS_90,a,VCS_250,c,VCS_350,d,1309,42205,VCS_250,c
A2TR30V5KYFFSI,1,3,VCS_350,d,VCS_170,b,VCS_70,a,VCS_270,c,1131,44630,VCS_270,c
A2TR30V5KYFFSI,1,4,VCS_270,c,VCS_180,b,VCS_90,a,VCS_360,d,1155,46982,VCS_360,d
A2TR30V5KYFFSI,1,5,VCS_340,d,VCS_160,b,VCS_240,c,VCS_80,a,1439,49526,VCS_240,c
A2TR30V5KYFFSI,1,6,VCS_160,b,VCS_60,a,VCS_340,d,VCS_260,c,3207,53967,VCS_260,c
A2TR30V5KYFFSI,1,7,VCS_260,c,VCS_80,a,VCS_180,b,VCS_340,d,1547,56821,VCS_340,d
A2TR30V5KYFFSI,1,8,VCS_80,a,VCS_180,b,VCS_260,c,VCS_340,d,4027,62385,VCS_180,b
A2TR30V5KYFFSI,1,9,VCS_60,a,VCS_240,c,VCS_150,b,VCS_330,d,2912,66632,VCS_150,b
A2TR30V5KYFFSI,1,10,VCS_70,a,VCS_330,d,VCS_170,b,VCS_250,c,1471,69121,VCS_170,b
A2TR30V5KYFFSI,1,11,VCS_150,b,VCS_60,a,VCS_240,c,VCS_330,d,2278,72423,VCS_60,a
A2TR30V5KYFFSI,1,12,VCS_240,c,VCS_330,d,VCS_60,a,VCS_150,b,5471,78900,VCS_150,b
A2TR30V5KYFFSI,1,13,VCS_80,a,VCS_170,b,VCS_260,c,VCS_350,d,2677,82794,VCS_170,b
A2TR30V5KYFFSI,1,14,VCS_340,d,VCS_70,a,VCS_250,c,VCS_160,b,2784,86710,VCS_250,c
A2TR30V5KYFFSI,1,15,VCS_170,b,VCS_70,a,VCS_270,c,VCS_350,d,1182,88909,VCS_270,c
A2TR30V5KYFFSI,1,16,VCS_350,d,VCS_80,a,VCS_260,c,VCS_170,b,2691,92668,VCS_260,c
A2TR30V5KYFFSI,1,17,VCS_250,c,VCS_350,d,VCS_70,a,VCS_150,b,1812,95765,VCS_350,d
A2TR30V5KYFFSI,1,18,VCS_250,c,VCS_170,b,VCS_330,d,VCS_70,a,4788,101765,VCS_330,d
A2TR30V5KYFFSI,1,19,VCS_180,b,VCS_270,c,VCS_360,d,VCS_90,a,1401,104172,VCS_90,a
A2TR30V5KYFFSI,1,20,VCS_70,a,VCS_250,c,VCS_340,d,VCS_160,b,2532,107973,VCS_160,b
A2TR30V5KYFFSI,1,21,VCS_260,c,VCS_350,d,VCS_80,a,VCS_170,b,1342,110343,VCS_350,d
A2TR30V5KYFFSI,1,22,VCS_260,c,VCS_160,b,VCS_360,d,VCS_80,a,1223,112935,VCS_360,d
A2TR30V5KYFFSI,1,23,VCS_250,c,VCS_340,d,VCS_70,a,VCS_160,b,1327,115288,VCS_340,d
A2TR30V5KYFFSI,1,24,VCS_80,a,VCS_360,d,VCS_260,c,VCS_160,b,5394,121699,VCS_160,b
A2TR30V5KYFFSI,1,25,VCS_90,a,VCS_180,b,VCS_270,c,VCS_360,d,4082,127098,VCS_180,b
A2TR30V5KYFFSI,1,26,VCS_350,d,VCS_250,c,VCS_90,a,VCS_170,b,2464,130766,VCS_250,c
A2TR30V5KYFFSI,1,27,VCS_160,b,VCS_340,d,VCS_250,c,VCS_70,a,2679,134622,VCS_250,c
A2TR30V5KYFFSI,1,28,VCS_330,d,VCS_240,c,VCS_150,b,VCS_60,a,2018,137765,VCS_240,c
A2TR30V5KYFFSI,1,29,VCS_70,a,VCS_150,b,VCS_350,d,VCS_250,c,1276,140067,VCS_150,b
A2TR30V5KYFFSI,1,30,VCS_170,b,VCS_80,a,VCS_350,d,VCS_260,c,2055,143134,VCS_260,c
A2TR30V5KYFFSI,1,31,VCS_340,d,VCS_260,c,VCS_160,b,VCS_60,a,4286,148557,VCS_260,c
A2WNTI69VVVWMZ,1,0,VCS_260,c,VCS_170,b,VCS_80,a,VCS_350,d,4496,13910,VCS_170,b
A2WNTI69VVVWMZ,1,1,VCS_340,d,VCS_160,b,VCS_80,a,VCS_240,c,3122,18049,VCS_240,c
A2WNTI69VVVWMZ,1,2,VCS_180,b,VCS_270,c,VCS_90,a,VCS_360,d,2507,21558,VCS_270,c
A2WNTI69VVVWMZ,1,3,VCS_70,a,VCS_160,b,VCS_340,d,VCS_250,c,2041,24629,VCS_340,d
A2WNTI69VVVWMZ,1,4,VCS_90,a,VCS_180,b,VCS_270,c,VCS_360,d,4438,30077,VCS_180,b
A2WNTI69VVVWMZ,1,5,VCS_240,c,VCS_150,b,VCS_330,d,VCS_60,a,2963,34059,VCS_150,b
A2WNTI69VVVWMZ,1,6,VCS_340,d,VCS_160,b,VCS_260,c,VCS_60,a,2793,37877,VCS_260,c
A2WNTI69VVVWMZ,1,7,VCS_270,c,VCS_90,a,VCS_180,b,VCS_360,d,3410,42311,VCS_360,d
A2WNTI69VVVWMZ,1,8,VCS_340,d,VCS_160,b,VCS_250,c,VCS_70,a,3419,46746,VCS_70,a
A2WNTI69VVVWMZ,1,9,VCS_60,a,VCS_330,d,VCS_240,c,VCS_150,b,1743,49509,VCS_330,d
A2WNTI69VVVWMZ,1,10,VCS_80,a,VCS_260,c,VCS_360,d,VCS_160,b,3492,54032,VCS_160,b
A2WNTI69VVVWMZ,1,11,VCS_250,c,VCS_160,b,VCS_70,a,VCS_340,d,4280,59324,VCS_70,a
A2WNTI69VVVWMZ,1,12,VCS_80,a,VCS_180,b,VCS_340,d,VCS_260,c,2707,63043,VCS_260,c
A2WNTI69VVVWMZ,1,13,VCS_330,d,VCS_240,c,VCS_150,b,VCS_60,a,3050,67114,VCS_240,c
A2WNTI69VVVWMZ,1,14,VCS_70,a,VCS_150,b,VCS_350,d,VCS_250,c,3915,72043,VCS_150,b
A2WNTI69VVVWMZ,1,15,VCS_80,a,VCS_170,b,VCS_260,c,VCS_350,d,2048,75114,VCS_170,b
A2WNTI69VVVWMZ,1,16,VCS_170,b,VCS_270,c,VCS_350,d,VCS_70,a,1377,77513,VCS_70,a
A2WNTI69VVVWMZ,1,17,VCS_170,b,VCS_80,a,VCS_350,d,VCS_260,c,2451,80979,VCS_80,a
A2WNTI69VVVWMZ,1,18,VCS_160,b,VCS_260,c,VCS_60,a,VCS_340,d,2063,84061,VCS_60,a
A2WNTI69VVVWMZ,1,19,VCS_160,b,VCS_80,a,VCS_340,d,VCS_240,c,1570,86648,VCS_80,a
A2WNTI69VVVWMZ,1,20,VCS_260,c,VCS_340,d,VCS_180,b,VCS_80,a,3083,90753,VCS_180,b
A2WNTI69VVVWMZ,1,21,VCS_250,c,VCS_330,d,VCS_70,a,VCS_170,b,1125,92888,VCS_330,d
A2WNTI69VVVWMZ,1,22,VCS_350,d,VCS_70,a,VCS_170,b,VCS_270,c,2529,96432,VCS_70,a
A2WNTI69VVVWMZ,1,23,VCS_160,b,VCS_70,a,VCS_340,d,VCS_250,c,2223,99669,VCS_70,a
A2WNTI69VVVWMZ,1,24,VCS_250,c,VCS_350,d,VCS_150,b,VCS_70,a,2125,102805,VCS_350,d
A2WNTI69VVVWMZ,1,25,VCS_350,d,VCS_90,a,VCS_170,b,VCS_250,c,1175,104997,VCS_250,c
A2WNTI69VVVWMZ,1,26,VCS_70,a,VCS_330,d,VCS_250,c,VCS_170,b,2063,108068,VCS_170,b
A2WNTI69VVVWMZ,1,27,VCS_350,d,VCS_170,b,VCS_80,a,VCS_260,c,1592,110676,VCS_80,a
A2WNTI69VVVWMZ,1,28,VCS_150,b,VCS_240,c,VCS_330,d,VCS_60,a,3572,115254,VCS_240,c
A2WNTI69VVVWMZ,1,29,VCS_170,b,VCS_350,d,VCS_90,a,VCS_250,c,1218,117489,VCS_250,c
A2WNTI69VVVWMZ,1,30,VCS_260,c,VCS_80,a,VCS_160,b,VCS_360,d,1658,120164,VCS_160,b
A2WNTI69VVVWMZ,1,31,VCS_360,d,VCS_180,b,VCS_270,c,VCS_90,a,2003,123180,VCS_270,c
A2XFO0X6RCS98M,1,0,VCS_80,a,VCS_260,c,VCS_340,d,VCS_180,b,3955,8802,VCS_180,b
A2XFO0X6RCS98M,1,1,VCS_330,d,VCS_150,b,VCS_60,a,VCS_240,c,2470,12276,VCS_240,c
A2XFO0X6RCS98M,1,2,VCS_80,a,VCS_260,c,VCS_160,b,VCS_360,d,3970,17250,VCS_160,b
A2XFO0X6RCS98M,1,3,VCS_170,b,VCS_90,a,VCS_250,c,VCS_350,d,4424,22680,VCS_90,a
A2XFO0X6RCS98M,1,4,VCS_60,a,VCS_240,c,VCS_150,b,VCS_330,d,1865,25558,VCS_150,b
A2XFO0X6RCS98M,1,5,VCS_160,b,VCS_60,a,VCS_340,d,VCS_260,c,2706,29266,VCS_60,a
A2XFO0X6RCS98M,1,6,VCS_360,d,VCS_270,c,VCS_90,a,VCS_180,b,972,31264,VCS_270,c
A2XFO0X6RCS98M,1,7,VCS_240,c,VCS_330,d,VCS_150,b,VCS_60,a,1068,33354,VCS_330,d
A2XFO0X6RCS98M,1,8,VCS_260,c,VCS_350,d,VCS_170,b,VCS_80,a,817,35196,VCS_350,d
A2XFO0X6RCS98M,1,9,VCS_350,d,VCS_170,b,VCS_270,c,VCS_70,a,1122,37337,VCS_270,c
A2XFO0X6RCS98M,1,10,VCS_180,b,VCS_270,c,VCS_90,a,VCS_360,d,1475,39826,VCS_90,a
A2XFO0X6RCS98M,1,11,VCS_80,a,VCS_170,b,VCS_350,d,VCS_260,c,1068,41908,VCS_170,b
A2XFO0X6RCS98M,1,12,VCS_350,d,VCS_260,c,VCS_170,b,VCS_80,a,768,43696,VCS_260,c
A2XFO0X6RCS98M,1,13,VCS_340,d,VCS_80,a,VCS_160,b,VCS_240,c,1800,46507,VCS_80,a
A2XFO0X6RCS98M,1,14,VCS_250,c,VCS_170,b,VCS_70,a,VCS_330,d,961,48484,VCS_330,d
A2XFO0X6RCS98M,1,15,VCS_250,c,VCS_70,a,VCS_350,d,VCS_150,b,577,50085,VCS_350,d
A2XFO0X6RCS98M,1,16,VCS_160,b,VCS_340,d,VCS_70,a,VCS_250,c,1415,52525,VCS_70,a
A2XFO0X6RCS98M,1,17,VCS_150,b,VCS_60,a,VCS_240,c,VCS_330,d,1895,55436,VCS_60,a
A2XFO0X6RCS98M,1,18,VCS_260,c,VCS_160,b,VCS_80,a,VCS_360,d,944,57403,VCS_360,d
A2XFO0X6RCS98M,1,19,VCS_170,b,VCS_260,c,VCS_80,a,VCS_350,d,1139,59554,VCS_80,a
A2XFO0X6RCS98M,1,20,VCS_250,c,VCS_160,b,VCS_340,d,VCS_70,a,644,61214,VCS_340,d
A2XFO0X6RCS98M,1,21,VCS_270,c,VCS_90,a,VCS_180,b,VCS_360,d,1048,63276,VCS_360,d
A2XFO0X6RCS98M,1,22,VCS_70,a,VCS_330,d,VCS_170,b,VCS_250,c,1307,65598,VCS_170,b
A2XFO0X6RCS98M,1,23,VCS_260,c,VCS_340,d,VCS_80,a,VCS_180,b,792,67406,VCS_340,d
A2XFO0X6RCS98M,1,24,VCS_340,d,VCS_160,b,VCS_260,c,VCS_60,a,717,69144,VCS_260,c
A2XFO0X6RCS98M,1,25,VCS_170,b,VCS_270,c,VCS_70,a,VCS_350,d,1061,71224,VCS_70,a
A2XFO0X6RCS98M,1,26,VCS_350,d,VCS_170,b,VCS_250,c,VCS_90,a,702,72939,VCS_250,c
A2XFO0X6RCS98M,1,27,VCS_70,a,VCS_250,c,VCS_350,d,VCS_150,b,871,74828,VCS_350,d
A2XFO0X6RCS98M,1,28,VCS_340,d,VCS_250,c,VCS_160,b,VCS_70,a,767,76622,VCS_250,c
A2XFO0X6RCS98M,1,29,VCS_160,b,VCS_240,c,VCS_80,a,VCS_340,d,1850,79498,VCS_80,a
A2XFO0X6RCS98M,1,30,VCS_70,a,VCS_250,c,VCS_340,d,VCS_160,b,1003,81525,VCS_160,b
A2XFO0X6RCS98M,1,31,VCS_90,a,VCS_180,b,VCS_270,c,VCS_360,d,1100,83650,VCS_180,b
A2Z0D73YYRCGQE,3,0,VCS_250,c,VCS_70,a,VCS_150,b,VCS_350,d,1198,18228,VCS_150,b
A2Z0D73YYRCGQE,3,1,VCS_160,b,VCS_70,a,VCS_250,c,VCS_340,d,2563,21804,VCS_70,a
A2Z0D73YYRCGQE,3,2,VCS_350,d,VCS_170,b,VCS_260,c,VCS_80,a,1287,24097,VCS_80,a
A2Z0D73YYRCGQE,3,3,VCS_360,d,VCS_90,a,VCS_180,b,VCS_270,c,1416,26516,VCS_270,c
A2Z0D73YYRCGQE,3,4,VCS_340,d,VCS_60,a,VCS_160,b,VCS_260,c,856,28388,VCS_60,a
A2Z0D73YYRCGQE,3,5,VCS_270,c,VCS_90,a,VCS_180,b,VCS_360,d,672,30078,VCS_360,d
A2Z0D73YYRCGQE,3,6,VCS_80,a,VCS_260,c,VCS_160,b,VCS_360,d,681,31771,VCS_260,c
A2Z0D73YYRCGQE,3,7,VCS_170,b,VCS_260,c,VCS_350,d,VCS_80,a,939,33723,VCS_80,a
A2Z0D73YYRCGQE,3,8,VCS_350,d,VCS_170,b,VCS_70,a,VCS_270,c,1877,36604,VCS_270,c
A2Z0D73YYRCGQE,3,9,VCS_70,a,VCS_170,b,VCS_330,d,VCS_250,c,1926,39535,VCS_170,b
A2Z0D73YYRCGQE,3,10,VCS_150,b,VCS_60,a,VCS_240,c,VCS_330,d,1514,42069,VCS_60,a
A2Z0D73YYRCGQE,3,11,VCS_80,a,VCS_260,c,VCS_340,d,VCS_180,b,927,43999,VCS_180,b
A2Z0D73YYRCGQE,3,12,VCS_350,d,VCS_170,b,VCS_90,a,VCS_250,c,1151,46154,VCS_250,c
A2Z0D73YYRCGQE,3,13,VCS_90,a,VCS_180,b,VCS_270,c,VCS_360,d,2287,49446,VCS_180,b
A2Z0D73YYRCGQE,3,14,VCS_70,a,VCS_250,c,VCS_350,d,VCS_150,b,912,51361,VCS_150,b
A2Z0D73YYRCGQE,3,15,VCS_80,a,VCS_350,d,VCS_170,b,VCS_260,c,1118,53483,VCS_170,b
A2Z0D73YYRCGQE,3,16,VCS_70,a,VCS_340,d,VCS_160,b,VCS_250,c,4999,60039,VCS_160,b
A2Z0D73YYRCGQE,3,17,VCS_260,c,VCS_350,d,VCS_170,b,VCS_80,a,1172,62219,VCS_350,d
A2Z0D73YYRCGQE,3,18,VCS_340,d,VCS_80,a,VCS_240,c,VCS_160,b,1253,64478,VCS_240,c
A2Z0D73YYRCGQE,3,19,VCS_250,c,VCS_170,b,VCS_70,a,VCS_330,d,2159,67655,VCS_170,b
A2Z0D73YYRCGQE,3,20,VCS_250,c,VCS_340,d,VCS_70,a,VCS_160,b,841,69506,VCS_340,d
A2Z0D73YYRCGQE,3,21,VCS_260,c,VCS_340,d,VCS_180,b,VCS_80,a,1255,71765,VCS_340,d
A2Z0D73YYRCGQE,3,22,VCS_240,c,VCS_150,b,VCS_60,a,VCS_330,d,1028,73799,VCS_150,b
A2Z0D73YYRCGQE,3,23,VCS_330,d,VCS_60,a,VCS_240,c,VCS_150,b,666,75473,VCS_60,a
A2Z0D73YYRCGQE,3,24,VCS_180,b,VCS_360,d,VCS_90,a,VCS_270,c,1257,77739,VCS_270,c
A2Z0D73YYRCGQE,3,25,VCS_260,c,VCS_360,d,VCS_80,a,VCS_160,b,1814,80555,VCS_360,d
A2Z0D73YYRCGQE,3,26,VCS_340,d,VCS_160,b,VCS_250,c,VCS_70,a,754,82315,VCS_70,a
A2Z0D73YYRCGQE,3,27,VCS_60,a,VCS_330,d,VCS_150,b,VCS_240,c,946,84276,VCS_330,d
A2Z0D73YYRCGQE,3,28,VCS_170,b,VCS_90,a,VCS_350,d,VCS_250,c,1517,86807,VCS_90,a
A2Z0D73YYRCGQE,3,29,VCS_160,b,VCS_60,a,VCS_340,d,VCS_260,c,705,88518,VCS_260,c
A2Z0D73YYRCGQE,3,30,VCS_160,b,VCS_80,a,VCS_240,c,VCS_340,d,2063,91597,VCS_80,a
A2Z0D73YYRCGQE,3,31,VCS_170,b,VCS_70,a,VCS_270,c,VCS_350,d,883,93483,VCS_70,a
A30J4IZCMCR31F,1,0,VCS_350,d,VCS_270,c,VCS_70,a,VCS_170,b,2650,68084,VCS_270,c
A30J4IZCMCR31F,1,1,VCS_90,a,VCS_180,b,VCS_270,c,VCS_360,d,1986,71074,VCS_270,c
A30J4IZCMCR31F,1,2,VCS_170,b,VCS_80,a,VCS_260,c,VCS_350,d,1894,73997,VCS_260,c
A30J4IZCMCR31F,1,3,VCS_70,a,VCS_150,b,VCS_350,d,VCS_250,c,1775,76782,VCS_150,b
A30J4IZCMCR31F,1,4,VCS_80,a,VCS_350,d,VCS_170,b,VCS_260,c,1444,79241,VCS_170,b
A30J4IZCMCR31F,1,5,VCS_340,d,VCS_240,c,VCS_160,b,VCS_80,a,3478,83733,VCS_240,c
A30J4IZCMCR31F,1,6,VCS_250,c,VCS_70,a,VCS_350,d,VCS_150,b,1631,86383,VCS_350,d
A30J4IZCMCR31F,1,7,VCS_150,b,VCS_60,a,VCS_330,d,VCS_240,c,6388,93777,VCS_240,c
A30J4IZCMCR31F,1,8,VCS_180,b,VCS_90,a,VCS_270,c,VCS_360,d,3817,98622,VCS_90,a
A30J4IZCMCR31F,1,9,VCS_60,a,VCS_330,d,VCS_150,b,VCS_240,c,1203,100843,VCS_150,b
A30J4IZCMCR31F,1,10,VCS_160,b,VCS_260,c,VCS_340,d,VCS_60,a,4089,105948,VCS_260,c
A30J4IZCMCR31F,1,11,VCS_330,d,VCS_60,a,VCS_240,c,VCS_150,b,1429,108397,VCS_240,c
A30J4IZCMCR31F,1,12,VCS_160,b,VCS_240,c,VCS_340,d,VCS_80,a,3102,112509,VCS_240,c
A30J4IZCMCR31F,1,13,VCS_70,a,VCS_340,d,VCS_160,b,VCS_250,c,1253,114778,VCS_160,b
A30J4IZCMCR31F,1,14,VCS_260,c,VCS_360,d,VCS_160,b,VCS_80,a,6111,121905,VCS_160,b
A30J4IZCMCR31F,1,15,VCS_170,b,VCS_90,a,VCS_250,c,VCS_350,d,1741,124670,VCS_90,a
A30J4IZCMCR31F,1,16,VCS_350,d,VCS_260,c,VCS_80,a,VCS_170,b,3310,129010,VCS_260,c
A30J4IZCMCR31F,1,17,VCS_340,d,VCS_70,a,VCS_250,c,VCS_160,b,2334,132355,VCS_250,c
A30J4IZCMCR31F,1,18,VCS_270,c,VCS_90,a,VCS_180,b,VCS_360,d,1398,134770,VCS_180,b
A30J4IZCMCR31F,1,19,VCS_260,c,VCS_180,b,VCS_340,d,VCS_80,a,2223,138009,VCS_340,d
A30J4IZCMCR31F,1,20,VCS_80,a,VCS_360,d,VCS_260,c,VCS_160,b,2700,141718,VCS_160,b
A30J4IZCMCR31F,1,21,VCS_250,c,VCS_70,a,VCS_160,b,VCS_340,d,1102,143838,VCS_160,b
A30J4IZCMCR31F,1,22,VCS_160,b,VCS_340,d,VCS_250,c,VCS_70,a,845,145696,VCS_250,c
A30J4IZCMCR31F,1,23,VCS_350,d,VCS_250,c,VCS_170,b,VCS_90,a,2371,149087,VCS_250,c
A30J4IZCMCR31F,1,24,VCS_340,d,VCS_260,c,VCS_60,a,VCS_160,b,1399,151500,VCS_260,c
A30J4IZCMCR31F,1,25,VCS_170,b,VCS_70,a,VCS_270,c,VCS_350,d,2584,155100,VCS_270,c
A30J4IZCMCR31F,1,26,VCS_250,c,VCS_70,a,VCS_330,d,VCS_170,b,5455,161571,VCS_170,b
A30J4IZCMCR31F,1,27,VCS_360,d,VCS_180,b,VCS_270,c,VCS_90,a,1131,163722,VCS_270,c
A30J4IZCMCR31F,1,28,VCS_80,a,VCS_180,b,VCS_340,d,VCS_260,c,5152,169887,VCS_260,c
A30J4IZCMCR31F,1,29,VCS_240,c,VCS_60,a,VCS_330,d,VCS_150,b,1354,172269,VCS_60,a
A30J4IZCMCR31F,1,30,VCS_260,c,VCS_170,b,VCS_80,a,VCS_350,d,1380,174678,VCS_350,d
A30J4IZCMCR31F,1,31,VCS_70,a,VCS_170,b,VCS_250,c,VCS_330,d,8553,184239,VCS_170,b
A35XZRK8CZWYBN,3,0,VCS_160,b,VCS_340,d,VCS_240,c,VCS_80,a,2064,60248,VCS_240,c
A35XZRK8CZWYBN,3,1,VCS_170,b,VCS_270,c,VCS_70,a,VCS_350,d,1973,63253,VCS_270,c
A35XZRK8CZWYBN,3,2,VCS_70,a,VCS_340,d,VCS_250,c,VCS_160,b,1831,66132,VCS_160,b
A35XZRK8CZWYBN,3,3,VCS_340,d,VCS_80,a,VCS_240,c,VCS_160,b,2499,69675,VCS_240,c
A35XZRK8CZWYBN,3,4,VCS_340,d,VCS_70,a,VCS_250,c,VCS_160,b,1458,72156,VCS_250,c
A35XZRK8CZWYBN,3,5,VCS_350,d,VCS_250,c,VCS_170,b,VCS_90,a,1373,74556,VCS_250,c
A35XZRK8CZWYBN,3,6,VCS_260,c,VCS_360,d,VCS_80,a,VCS_160,b,1755,77337,VCS_360,d
A35XZRK8CZWYBN,3,7,VCS_250,c,VCS_70,a,VCS_330,d,VCS_170,b,1208,79566,VCS_330,d
A35XZRK8CZWYBN,3,8,VCS_180,b,VCS_360,d,VCS_270,c,VCS_90,a,1860,82443,VCS_270,c
A35XZRK8CZWYBN,3,9,VCS_340,d,VCS_160,b,VCS_60,a,VCS_260,c,2444,85960,VCS_260,c
A35XZRK8CZWYBN,3,10,VCS_360,d,VCS_90,a,VCS_270,c,VCS_180,b,1362,88339,VCS_270,c
A35XZRK8CZWYBN,3,11,VCS_350,d,VCS_70,a,VCS_270,c,VCS_170,b,909,90264,VCS_270,c
A35XZRK8CZWYBN,3,12,VCS_250,c,VCS_160,b,VCS_70,a,VCS_340,d,1243,92517,VCS_340,d
A35XZRK8CZWYBN,3,13,VCS_160,b,VCS_60,a,VCS_340,d,VCS_260,c,2598,96138,VCS_60,a
A35XZRK8CZWYBN,3,14,VCS_350,d,VCS_170,b,VCS_260,c,VCS_80,a,1290,98496,VCS_260,c
A35XZRK8CZWYBN,3,15,VCS_150,b,VCS_330,d,VCS_60,a,VCS_240,c,1279,100798,VCS_240,c
A35XZRK8CZWYBN,3,16,VCS_70,a,VCS_170,b,VCS_250,c,VCS_330,d,2162,103977,VCS_250,c
A35XZRK8CZWYBN,3,17,VCS_270,c,VCS_90,a,VCS_360,d,VCS_180,b,1452,106453,VCS_360,d
A35XZRK8CZWYBN,3,18,VCS_60,a,VCS_330,d,VCS_240,c,VCS_150,b,2243,109774,VCS_150,b
A35XZRK8CZWYBN,3,19,VCS_250,c,VCS_350,d,VCS_150,b,VCS_70,a,1706,112492,VCS_350,d
A35XZRK8CZWYBN,3,20,VCS_70,a,VCS_350,d,VCS_150,b,VCS_250,c,1446,114951,VCS_150,b
A35XZRK8CZWYBN,3,21,VCS_170,b,VCS_90,a,VCS_250,c,VCS_350,d,2589,118562,VCS_90,a
A35XZRK8CZWYBN,3,22,VCS_80,a,VCS_170,b,VCS_350,d,VCS_260,c,1540,121180,VCS_170,b
A35XZRK8CZWYBN,3,23,VCS_90,a,VCS_360,d,VCS_180,b,VCS_270,c,1351,123553,VCS_180,b
A35XZRK8CZWYBN,3,24,VCS_80,a,VCS_260,c,VCS_340,d,VCS_180,b,1463,126027,VCS_180,b
A35XZRK8CZWYBN,3,25,VCS_260,c,VCS_180,b,VCS_80,a,VCS_340,d,1072,128110,VCS_340,d
A35XZRK8CZWYBN,3,26,VCS_170,b,VCS_350,d,VCS_80,a,VCS_260,c,2849,131970,VCS_80,a
A35XZRK8CZWYBN,3,27,VCS_260,c,VCS_80,a,VCS_170,b,VCS_350,d,1300,134290,VCS_350,d
A35XZRK8CZWYBN,3,28,VCS_160,b,VCS_250,c,VCS_340,d,VCS_70,a,1410,136707,VCS_70,a
A35XZRK8CZWYBN,3,29,VCS_240,c,VCS_330,d,VCS_150,b,VCS_60,a,1274,139044,VCS_330,d
A35XZRK8CZWYBN,3,30,VCS_80,a,VCS_260,c,VCS_360,d,VCS_160,b,1965,142018,VCS_160,b
A35XZRK8CZWYBN,3,31,VCS_330,d,VCS_60,a,VCS_240,c,VCS_150,b,1391,144431,VCS_240,c
A3F51C49T9A34D,1,0,VCS_170,b,VCS_90,a,VCS_350,d,VCS_250,c,8417,14695,VCS_90,a
A3F51C49T9A34D,1,1,VCS_150,b,VCS_60,a,VCS_240,c,VCS_330,d,3157,18857,VCS_60,a
A3F51C49T9A34D,1,2,VCS_160,b,VCS_80,a,VCS_340,d,VCS_240,c,2125,21996,VCS_80,a
A3F51C49T9A34D,1,3,VCS_250,c,VCS_160,b,VCS_340,d,VCS_70,a,1621,24626,VCS_340,d
A3F51C49T9A34D,1,4,VCS_350,d,VCS_170,b,VCS_260,c,VCS_80,a,1227,26866,VCS_260,c
A3F51C49T9A34D,1,5,VCS_170,b,VCS_350,d,VCS_80,a,VCS_260,c,1838,29717,VCS_80,a
A3F51C49T9A34D,1,6,VCS_260,c,VCS_170,b,VCS_80,a,VCS_350,d,1714,32440,VCS_350,d
A3F51C49T9A34D,1,7,VCS_360,d,VCS_180,b,VCS_270,c,VCS_90,a,1109,34556,VCS_270,c
A3F51C49T9A34D,1,8,VCS_340,d,VCS_240,c,VCS_160,b,VCS_80,a,1630,37196,VCS_240,c
A3F51C49T9A34D,1,9,VCS_160,b,VCS_250,c,VCS_70,a,VCS_340,d,1873,40079,VCS_70,a
A3F51C49T9A34D,1,10,VCS_90,a,VCS_360,d,VCS_270,c,VCS_180,b,3288,44375,VCS_180,b
A3F51C49T9A34D,1,11,VCS_80,a,VCS_260,c,VCS_350,d,VCS_170,b,1322,46705,VCS_170,b
A3F51C49T9A34D,1,12,VCS_170,b,VCS_350,d,VCS_70,a,VCS_270,c,1923,49634,VCS_70,a
A3F51C49T9A34D,1,13,VCS_250,c,VCS_70,a,VCS_350,d,VCS_150,b,1980,52627,VCS_350,d
A3F51C49T9A34D,1,14,VCS_340,d,VCS_70,a,VCS_250,c,VCS_160,b,2269,55908,VCS_250,c
A3F51C49T9A34D,1,15,VCS_60,a,VCS_240,c,VCS_330,d,VCS_150,b,1940,58859,VCS_150,b
A3F51C49T9A34D,1,16,VCS_240,c,VCS_60,a,VCS_150,b,VCS_330,d,1145,61016,VCS_330,d
A3F51C49T9A34D,1,17,VCS_80,a,VCS_180,b,VCS_340,d,VCS_260,c,1520,63543,VCS_180,b
A3F51C49T9A34D,1,18,VCS_70,a,VCS_350,d,VCS_150,b,VCS_250,c,1355,65906,VCS_150,b
A3F51C49T9A34D,1,19,VCS_250,c,VCS_70,a,VCS_170,b,VCS_330,d,1215,68134,VCS_330,d
A3F51C49T9A34D,1,20,VCS_70,a,VCS_160,b,VCS_250,c,VCS_340,d,1649,70792,VCS_160,b
A3F51C49T9A34D,1,21,VCS_70,a,VCS_330,d,VCS_250,c,VCS_170,b,1386,73184,VCS_170,b
A3F51C49T9A34D,1,22,VCS_260,c,VCS_180,b,VCS_340,d,VCS_80,a,1100,75290,VCS_340,d
A3F51C49T9A34D,1,23,VCS_270,c,VCS_180,b,VCS_90,a,VCS_360,d,1562,77865,VCS_360,d
A3F51C49T9A34D,1,24,VCS_350,d,VCS_250,c,VCS_90,a,VCS_170,b,1034,79905,VCS_250,c
A3F51C49T9A34D,1,25,VCS_340,d,VCS_260,c,VCS_160,b,VCS_60,a,1335,82243,VCS_260,c
A3F51C49T9A34D,1,26,VCS_80,a,VCS_260,c,VCS_160,b,VCS_360,d,1444,84699,VCS_160,b
A3F51C49T9A34D,1,27,VCS_350,d,VCS_270,c,VCS_170,b,VCS_70,a,1144,86855,VCS_270,c
A3F51C49T9A34D,1,28,VCS_260,c,VCS_360,d,VCS_80,a,VCS_160,b,1121,88984,VCS_360,d
A3F51C49T9A34D,1,29,VCS_180,b,VCS_90,a,VCS_270,c,VCS_360,d,1603,91594,VCS_90,a
A3F51C49T9A34D,1,30,VCS_160,b,VCS_60,a,VCS_260,c,VCS_340,d,1633,94240,VCS_60,a
A3F51C49T9A34D,1,31,VCS_330,d,VCS_240,c,VCS_60,a,VCS_150,b,1393,96640,VCS_240,c
A3G5OWGKHW6OL5,1,0,VCS_240,c,VCS_150,b,VCS_60,a,VCS_330,d,1206,16104,VCS_330,d
A3G5OWGKHW6OL5,1,1,VCS_250,c,VCS_160,b,VCS_340,d,VCS_70,a,2201,19310,VCS_160,b
A3G5OWGKHW6OL5,1,2,VCS_160,b,VCS_250,c,VCS_70,a,VCS_340,d,2534,22868,VCS_250,c
A3G5OWGKHW6OL5,1,3,VCS_70,a,VCS_150,b,VCS_350,d,VCS_250,c,832,24726,VCS_150,b
A3G5OWGKHW6OL5,1,4,VCS_250,c,VCS_170,b,VCS_330,d,VCS_70,a,2556,28302,VCS_70,a
A3G5OWGKHW6OL5,1,5,VCS_60,a,VCS_150,b,VCS_330,d,VCS_240,c,2932,32255,VCS_330,d
A3G5OWGKHW6OL5,1,6,VCS_270,c,VCS_90,a,VCS_360,d,VCS_180,b,2665,35941,VCS_360,d
A3G5OWGKHW6OL5,1,7,VCS_80,a,VCS_170,b,VCS_350,d,VCS_260,c,1360,38317,VCS_170,b
A3G5OWGKHW6OL5,1,8,VCS_260,c,VCS_350,d,VCS_170,b,VCS_80,a,2284,41629,VCS_80,a
A3G5OWGKHW6OL5,1,9,VCS_330,d,VCS_150,b,VCS_240,c,VCS_60,a,910,43557,VCS_60,a
A3G5OWGKHW6OL5,1,10,VCS_80,a,VCS_260,c,VCS_160,b,VCS_360,d,3256,47841,VCS_260,c
A3G5OWGKHW6OL5,1,11,VCS_350,d,VCS_170,b,VCS_270,c,VCS_70,a,935,49803,VCS_70,a
A3G5OWGKHW6OL5,1,12,VCS_350,d,VCS_80,a,VCS_260,c,VCS_170,b,2401,53231,VCS_80,a
A3G5OWGKHW6OL5,1,13,VCS_340,d,VCS_160,b,VCS_70,a,VCS_250,c,993,55256,VCS_70,a
A3G5OWGKHW6OL5,1,14,VCS_70,a,VCS_340,d,VCS_250,c,VCS_160,b,3391,59666,VCS_250,c
A3G5OWGKHW6OL5,1,15,VCS_250,c,VCS_70,a,VCS_150,b,VCS_350,d,1834,62530,VCS_70,a
A3G5OWGKHW6OL5,1,16,VCS_160,b,VCS_340,d,VCS_60,a,VCS_260,c,5018,68563,VCS_260,c
A3G5OWGKHW6OL5,1,17,VCS_180,b,VCS_360,d,VCS_270,c,VCS_90,a,3949,73535,VCS_270,c
A3G5OWGKHW6OL5,1,18,VCS_170,b,VCS_250,c,VCS_350,d,VCS_90,a,3333,77894,VCS_250,c
A3G5OWGKHW6OL5,1,19,VCS_90,a,VCS_270,c,VCS_180,b,VCS_360,d,3604,82518,VCS_270,c
A3G5OWGKHW6OL5,1,20,VCS_260,c,VCS_160,b,VCS_80,a,VCS_360,d,3946,87482,VCS_160,b
A3G5OWGKHW6OL5,1,21,VCS_80,a,VCS_340,d,VCS_180,b,VCS_260,c,2541,91043,VCS_260,c
A3G5OWGKHW6OL5,1,22,VCS_360,d,VCS_180,b,VCS_90,a,VCS_270,c,4024,96096,VCS_270,c
A3G5OWGKHW6OL5,1,23,VCS_260,c,VCS_340,d,VCS_80,a,VCS_180,b,10319,107439,VCS_180,b
A3G5OWGKHW6OL5,1,24,VCS_160,b,VCS_340,d,VCS_240,c,VCS_80,a,2711,111176,VCS_240,c
A3G5OWGKHW6OL5,1,25,VCS_150,b,VCS_330,d,VCS_60,a,VCS_240,c,1651,113843,VCS_240,c
A3G5OWGKHW6OL5,1,26,VCS_70,a,VCS_170,b,VCS_330,d,VCS_250,c,822,115689,VCS_330,d
A3G5OWGKHW6OL5,1,27,VCS_350,d,VCS_90,a,VCS_250,c,VCS_170,b,1193,117887,VCS_90,a
A3G5OWGKHW6OL5,1,28,VCS_340,d,VCS_160,b,VCS_260,c,VCS_60,a,677,119590,VCS_60,a
A3G5OWGKHW6OL5,1,29,VCS_340,d,VCS_80,a,VCS_160,b,VCS_240,c,620,121229,VCS_80,a
A3G5OWGKHW6OL5,1,30,VCS_170,b,VCS_260,c,VCS_350,d,VCS_80,a,2227,124487,VCS_80,a
A3G5OWGKHW6OL5,1,31,VCS_170,b,VCS_350,d,VCS_70,a,VCS_270,c,5477,130981,VCS_70,a
A3G7QQTQIKYI2O,3,0,VCS_80,a,VCS_170,b,VCS_350,d,VCS_260,c,3008,12140,VCS_170,b
A3G7QQTQIKYI2O,3,1,VCS_70,a,VCS_160,b,VCS_340,d,VCS_250,c,4969,18140,VCS_160,b
A3G7QQTQIKYI2O,3,2,VCS_350,d,VCS_170,b,VCS_90,a,VCS_250,c,3680,22846,VCS_250,c
A3G7QQTQIKYI2O,3,3,VCS_160,b,VCS_250,c,VCS_70,a,VCS_340,d,3070,26922,VCS_250,c
A3G7QQTQIKYI2O,3,4,VCS_170,b,VCS_270,c,VCS_70,a,VCS_350,d,6157,34119,VCS_270,c
A3G7QQTQIKYI2O,3,5,VCS_360,d,VCS_90,a,VCS_180,b,VCS_270,c,1518,36639,VCS_90,a
A3G7QQTQIKYI2O,3,6,VCS_160,b,VCS_60,a,VCS_260,c,VCS_340,d,4709,42381,VCS_260,c
A3G7QQTQIKYI2O,3,7,VCS_250,c,VCS_170,b,VCS_330,d,VCS_70,a,1321,44726,VCS_170,b
A3G7QQTQIKYI2O,3,8,VCS_170,b,VCS_80,a,VCS_350,d,VCS_260,c,1550,47304,VCS_260,c
A3G7QQTQIKYI2O,3,9,VCS_270,c,VCS_90,a,VCS_360,d,VCS_180,b,1269,49598,VCS_180,b
A3G7QQTQIKYI2O,3,10,VCS_170,b,VCS_350,d,VCS_90,a,VCS_250,c,923,51555,VCS_250,c
A3G7QQTQIKYI2O,3,11,VCS_330,d,VCS_240,c,VCS_150,b,VCS_60,a,1347,53922,VCS_60,a
A3G7QQTQIKYI2O,3,12,VCS_340,d,VCS_70,a,VCS_250,c,VCS_160,b,3008,57941,VCS_70,a
A3G7QQTQIKYI2O,3,13,VCS_260,c,VCS_80,a,VCS_180,b,VCS_340,d,3193,62173,VCS_340,d
A3G7QQTQIKYI2O,3,14,VCS_250,c,VCS_340,d,VCS_160,b,VCS_70,a,1465,64655,VCS_340,d
A3G7QQTQIKYI2O,3,15,VCS_160,b,VCS_340,d,VCS_80,a,VCS_240,c,1478,67154,VCS_240,c
A3G7QQTQIKYI2O,3,16,VCS_260,c,VCS_360,d,VCS_160,b,VCS_80,a,1395,69570,VCS_160,b
A3G7QQTQIKYI2O,3,17,VCS_80,a,VCS_180,b,VCS_260,c,VCS_340,d,2613,73213,VCS_180,b
A3G7QQTQIKYI2O,3,18,VCS_240,c,VCS_330,d,VCS_60,a,VCS_150,b,2088,76303,VCS_150,b
A3G7QQTQIKYI2O,3,19,VCS_340,d,VCS_260,c,VCS_60,a,VCS_160,b,1331,78654,VCS_60,a
A3G7QQTQIKYI2O,3,20,VCS_70,a,VCS_250,c,VCS_150,b,VCS_350,d,1383,81069,VCS_350,d
A3G7QQTQIKYI2O,3,21,VCS_60,a,VCS_240,c,VCS_330,d,VCS_150,b,1540,83619,VCS_150,b
A3G7QQTQIKYI2O,3,22,VCS_260,c,VCS_80,a,VCS_170,b,VCS_350,d,2558,87185,VCS_170,b
A3G7QQTQIKYI2O,3,23,VCS_90,a,VCS_180,b,VCS_360,d,VCS_270,c,5423,93630,VCS_180,b
A3G7QQTQIKYI2O,3,24,VCS_250,c,VCS_350,d,VCS_70,a,VCS_150,b,3037,97695,VCS_150,b
A3G7QQTQIKYI2O,3,25,VCS_180,b,VCS_360,d,VCS_90,a,VCS_270,c,973,99671,VCS_270,c
A3G7QQTQIKYI2O,3,26,VCS_80,a,VCS_360,d,VCS_260,c,VCS_160,b,1304,102006,VCS_260,c
A3G7QQTQIKYI2O,3,27,VCS_150,b,VCS_60,a,VCS_330,d,VCS_240,c,714,103741,VCS_240,c
A3G7QQTQIKYI2O,3,28,VCS_340,d,VCS_80,a,VCS_240,c,VCS_160,b,1672,106446,VCS_80,a
A3G7QQTQIKYI2O,3,29,VCS_350,d,VCS_260,c,VCS_80,a,VCS_170,b,1027,108485,VCS_80,a
A3G7QQTQIKYI2O,3,30,VCS_70,a,VCS_330,d,VCS_170,b,VCS_250,c,1968,111462,VCS_330,d
A3G7QQTQIKYI2O,3,31,VCS_350,d,VCS_70,a,VCS_170,b,VCS_270,c,996,113470,VCS_70,a
A3H3BTRV6I3LYU,3,0,VCS_70,a,VCS_250,c,VCS_150,b,VCS_350,d,968,18507,VCS_150,b
A3H3BTRV6I3LYU,3,1,VCS_350,d,VCS_170,b,VCS_70,a,VCS_270,c,1203,20727,VCS_270,c
A3H3BTRV6I3LYU,3,2,VCS_350,d,VCS_170,b,VCS_90,a,VCS_250,c,1192,22928,VCS_250,c
A3H3BTRV6I3LYU,3,3,VCS_170,b,VCS_350,d,VCS_260,c,VCS_80,a,2085,26034,VCS_80,a
A3H3BTRV6I3LYU,3,4,VCS_170,b,VCS_90,a,VCS_350,d,VCS_250,c,870,27915,VCS_250,c
A3H3BTRV6I3LYU,3,5,VCS_360,d,VCS_270,c,VCS_90,a,VCS_180,b,1277,30200,VCS_90,a
A3H3BTRV6I3LYU,3,6,VCS_270,c,VCS_360,d,VCS_90,a,VCS_180,b,1358,32570,VCS_180,b
A3H3BTRV6I3LYU,3,7,VCS_150,b,VCS_60,a,VCS_240,c,VCS_330,d,1369,34958,VCS_240,c
A3H3BTRV6I3LYU,3,8,VCS_260,c,VCS_360,d,VCS_160,b,VCS_80,a,1211,37184,VCS_160,b
A3H3BTRV6I3LYU,3,9,VCS_240,c,VCS_330,d,VCS_60,a,VCS_150,b,1036,39240,VCS_150,b
A3H3BTRV6I3LYU,3,10,VCS_160,b,VCS_240,c,VCS_340,d,VCS_80,a,1634,41891,VCS_240,c
A3H3BTRV6I3LYU,3,11,VCS_350,d,VCS_170,b,VCS_80,a,VCS_260,c,823,43734,VCS_80,a
A3H3BTRV6I3LYU,3,12,VCS_80,a,VCS_170,b,VCS_260,c,VCS_350,d,893,45634,VCS_170,b
A3H3BTRV6I3LYU,3,13,VCS_250,c,VCS_70,a,VCS_340,d,VCS_160,b,1022,47672,VCS_160,b
A3H3BTRV6I3LYU,3,14,VCS_340,d,VCS_160,b,VCS_80,a,VCS_240,c,1426,50138,VCS_80,a
A3H3BTRV6I3LYU,3,15,VCS_70,a,VCS_170,b,VCS_250,c,VCS_330,d,2199,53348,VCS_330,d
A3H3BTRV6I3LYU,3,16,VCS_80,a,VCS_180,b,VCS_260,c,VCS_340,d,1096,55459,VCS_340,d
A3H3BTRV6I3LYU,3,17,VCS_160,b,VCS_340,d,VCS_60,a,VCS_260,c,644,57122,VCS_260,c
A3H3BTRV6I3LYU,3,18,VCS_340,d,VCS_60,a,VCS_260,c,VCS_160,b,782,58908,VCS_60,a
A3H3BTRV6I3LYU,3,19,VCS_330,d,VCS_60,a,VCS_150,b,VCS_240,c,838,60765,VCS_60,a
A3H3BTRV6I3LYU,3,20,VCS_250,c,VCS_170,b,VCS_70,a,VCS_330,d,885,62661,VCS_170,b
A3H3BTRV6I3LYU,3,21,VCS_70,a,VCS_160,b,VCS_340,d,VCS_250,c,756,64419,VCS_340,d
A3H3BTRV6I3LYU,3,22,VCS_250,c,VCS_150,b,VCS_70,a,VCS_350,d,669,66107,VCS_150,b
A3H3BTRV6I3LYU,3,23,VCS_90,a,VCS_180,b,VCS_360,d,VCS_270,c,1067,68183,VCS_360,d
A3H3BTRV6I3LYU,3,24,VCS_260,c,VCS_80,a,VCS_350,d,VCS_170,b,894,70083,VCS_170,b
A3H3BTRV6I3LYU,3,25,VCS_80,a,VCS_260,c,VCS_160,b,VCS_360,d,870,71969,VCS_160,b
A3H3BTRV6I3LYU,3,26,VCS_160,b,VCS_250,c,VCS_70,a,VCS_340,d,650,73637,VCS_250,c
A3H3BTRV6I3LYU,3,27,VCS_340,d,VCS_70,a,VCS_160,b,VCS_250,c,579,75222,VCS_70,a
A3H3BTRV6I3LYU,3,28,VCS_180,b,VCS_90,a,VCS_360,d,VCS_270,c,904,77142,VCS_270,c
A3H3BTRV6I3LYU,3,29,VCS_60,a,VCS_150,b,VCS_330,d,VCS_240,c,433,78594,VCS_330,d
A3H3BTRV6I3LYU,3,30,VCS_170,b,VCS_70,a,VCS_350,d,VCS_270,c,1267,80878,VCS_270,c
A3H3BTRV6I3LYU,3,31,VCS_260,c,VCS_80,a,VCS_340,d,VCS_180,b,1106,83002,VCS_180,b
A3HPLIWSXW3XV8,3,0,VCS_90,a,VCS_360,d,VCS_180,b,VCS_270,c,3616,25732,VCS_180,b
A3HPLIWSXW3XV8,3,1,VCS_250,c,VCS_170,b,VCS_330,d,VCS_70,a,3277,30021,VCS_330,d
A3HPLIWSXW3XV8,3,2,VCS_340,d,VCS_70,a,VCS_250,c,VCS_160,b,1605,32639,VCS_250,c
A3HPLIWSXW3XV8,3,3,VCS_170,b,VCS_350,d,VCS_90,a,VCS_250,c,2904,36554,VCS_90,a
A3HPLIWSXW3XV8,3,4,VCS_80,a,VCS_170,b,VCS_260,c,VCS_350,d,2245,39821,VCS_170,b
A3HPLIWSXW3XV8,3,5,VCS_270,c,VCS_90,a,VCS_360,d,VCS_180,b,2105,42952,VCS_360,d
A3HPLIWSXW3XV8,3,6,VCS_160,b,VCS_250,c,VCS_340,d,VCS_70,a,1928,45925,VCS_70,a
A3HPLIWSXW3XV8,3,7,VCS_180,b,VCS_270,c,VCS_90,a,VCS_360,d,1612,48556,VCS_90,a
A3HPLIWSXW3XV8,3,8,VCS_160,b,VCS_60,a,VCS_340,d,VCS_260,c,1656,51223,VCS_60,a
A3HPLIWSXW3XV8,3,9,VCS_70,a,VCS_350,d,VCS_250,c,VCS_150,b,1631,53874,VCS_150,b
A3HPLIWSXW3XV8,3,10,VCS_170,b,VCS_350,d,VCS_80,a,VCS_260,c,1343,56240,VCS_80,a
A3HPLIWSXW3XV8,3,11,VCS_80,a,VCS_180,b,VCS_340,d,VCS_260,c,1875,59146,VCS_180,b
A3HPLIWSXW3XV8,3,12,VCS_260,c,VCS_340,d,VCS_80,a,VCS_180,b,2926,63096,VCS_340,d
A3HPLIWSXW3XV8,3,13,VCS_260,c,VCS_160,b,VCS_360,d,VCS_80,a,2447,66550,VCS_360,d
A3HPLIWSXW3XV8,3,14,VCS_350,d,VCS_170,b,VCS_270,c,VCS_70,a,1647,69214,VCS_270,c
A3HPLIWSXW3XV8,3,15,VCS_70,a,VCS_330,d,VCS_250,c,VCS_170,b,2422,72658,VCS_170,b
A3HPLIWSXW3XV8,3,16,VCS_160,b,VCS_80,a,VCS_240,c,VCS_340,d,2129,75812,VCS_80,a
A3HPLIWSXW3XV8,3,17,VCS_170,b,VCS_270,c,VCS_70,a,VCS_350,d,2360,79193,VCS_70,a
A3HPLIWSXW3XV8,3,18,VCS_240,c,VCS_330,d,VCS_60,a,VCS_150,b,4003,84218,VCS_330,d
A3HPLIWSXW3XV8,3,19,VCS_260,c,VCS_80,a,VCS_350,d,VCS_170,b,3405,88633,VCS_350,d
A3HPLIWSXW3XV8,3,20,VCS_340,d,VCS_160,b,VCS_240,c,VCS_80,a,1218,90866,VCS_240,c
A3HPLIWSXW3XV8,3,21,VCS_340,d,VCS_160,b,VCS_260,c,VCS_60,a,1939,93825,VCS_260,c
A3HPLIWSXW3XV8,3,22,VCS_350,d,VCS_80,a,VCS_260,c,VCS_170,b,2162,97007,VCS_260,c
A3HPLIWSXW3XV8,3,23,VCS_250,c,VCS_340,d,VCS_160,b,VCS_70,a,2920,100940,VCS_340,d
A3HPLIWSXW3XV8,3,24,VCS_60,a,VCS_330,d,VCS_150,b,VCS_240,c,1450,103407,VCS_150,b
A3HPLIWSXW3XV8,3,25,VCS_350,d,VCS_90,a,VCS_250,c,VCS_170,b,1540,105962,VCS_250,c
A3HPLIWSXW3XV8,3,26,VCS_330,d,VCS_150,b,VCS_60,a,VCS_240,c,4105,111089,VCS_240,c
A3HPLIWSXW3XV8,3,27,VCS_360,d,VCS_180,b,VCS_270,c,VCS_90,a,4519,116626,VCS_90,a
A3HPLIWSXW3XV8,3,28,VCS_80,a,VCS_260,c,VCS_360,d,VCS_160,b,2304,119946,VCS_160,b
A3HPLIWSXW3XV8,3,29,VCS_70,a,VCS_340,d,VCS_160,b,VCS_250,c,1599,122560,VCS_160,b
A3HPLIWSXW3XV8,3,30,VCS_250,c,VCS_350,d,VCS_150,b,VCS_70,a,1737,125304,VCS_350,d
A3HPLIWSXW3XV8,3,31,VCS_150,b,VCS_60,a,VCS_330,d,VCS_240,c,2738,129055,VCS_60,a
A3I40B0FATY8VH,3,0,VCS_80,a,VCS_360,d,VCS_160,b,VCS_260,c,1422,15963,VCS_160,b
A3I40B0FATY8VH,3,1,VCS_360,d,VCS_90,a,VCS_270,c,VCS_180,b,1652,18618,VCS_270,c
A3I40B0FATY8VH,3,2,VCS_260,c,VCS_180,b,VCS_80,a,VCS_340,d,2325,21948,VCS_340,d
A3I40B0FATY8VH,3,3,VCS_270,c,VCS_360,d,VCS_180,b,VCS_90,a,1354,24307,VCS_360,d
A3I40B0FATY8VH,3,4,VCS_260,c,VCS_80,a,VCS_350,d,VCS_170,b,1553,26866,VCS_350,d
A3I40B0FATY8VH,3,5,VCS_150,b,VCS_60,a,VCS_240,c,VCS_330,d,1996,29867,VCS_60,a
A3I40B0FATY8VH,3,6,VCS_170,b,VCS_270,c,VCS_70,a,VCS_350,d,1839,32710,VCS_70,a
A3I40B0FATY8VH,3,7,VCS_70,a,VCS_250,c,VCS_340,d,VCS_160,b,1691,35406,VCS_160,b
A3I40B0FATY8VH,3,8,VCS_80,a,VCS_260,c,VCS_170,b,VCS_350,d,2072,38484,VCS_170,b
A3I40B0FATY8VH,3,9,VCS_350,d,VCS_170,b,VCS_270,c,VCS_70,a,2136,41626,VCS_270,c
A3I40B0FATY8VH,3,10,VCS_340,d,VCS_60,a,VCS_260,c,VCS_160,b,819,43448,VCS_260,c
A3I40B0FATY8VH,3,11,VCS_170,b,VCS_350,d,VCS_80,a,VCS_260,c,2461,46912,VCS_80,a
A3I40B0FATY8VH,3,12,VCS_70,a,VCS_330,d,VCS_250,c,VCS_170,b,2465,50382,VCS_330,d
A3I40B0FATY8VH,3,13,VCS_160,b,VCS_260,c,VCS_60,a,VCS_340,d,2075,53462,VCS_60,a
A3I40B0FATY8VH,3,14,VCS_330,d,VCS_150,b,VCS_240,c,VCS_60,a,2352,56820,VCS_240,c
A3I40B0FATY8VH,3,15,VCS_260,c,VCS_160,b,VCS_80,a,VCS_360,d,2945,60768,VCS_360,d
A3I40B0FATY8VH,3,16,VCS_180,b,VCS_90,a,VCS_360,d,VCS_270,c,1569,63340,VCS_90,a
A3I40B0FATY8VH,3,17,VCS_350,d,VCS_170,b,VCS_90,a,VCS_250,c,1101,65444,VCS_250,c
A3I40B0FATY8VH,3,18,VCS_160,b,VCS_70,a,VCS_340,d,VCS_250,c,4224,70672,VCS_70,a
A3I40B0FATY8VH,3,19,VCS_60,a,VCS_150,b,VCS_240,c,VCS_330,d,1922,73600,VCS_150,b
A3I40B0FATY8VH,3,20,VCS_250,c,VCS_350,d,VCS_150,b,VCS_70,a,2074,76680,VCS_350,d
A3I40B0FATY8VH,3,21,VCS_350,d,VCS_80,a,VCS_260,c,VCS_170,b,3480,81163,VCS_260,c
A3I40B0FATY8VH,3,22,VCS_70,a,VCS_150,b,VCS_250,c,VCS_350,d,2365,84534,VCS_150,b
A3I40B0FATY8VH,3,23,VCS_250,c,VCS_340,d,VCS_70,a,VCS_160,b,1676,87212,VCS_340,d
A3I40B0FATY8VH,3,24,VCS_250,c,VCS_70,a,VCS_330,d,VCS_170,b,1356,89572,VCS_330,d
A3I40B0FATY8VH,3,25,VCS_160,b,VCS_80,a,VCS_240,c,VCS_340,d,1662,92241,VCS_80,a
A3I40B0FATY8VH,3,26,VCS_240,c,VCS_150,b,VCS_330,d,VCS_60,a,1710,94955,VCS_330,d
A3I40B0FATY8VH,3,27,VCS_170,b,VCS_350,d,VCS_90,a,VCS_250,c,2611,98570,VCS_90,a
A3I40B0FATY8VH,3,28,VCS_80,a,VCS_180,b,VCS_340,d,VCS_260,c,2053,101628,VCS_340,d
A3I40B0FATY8VH,3,29,VCS_90,a,VCS_360,d,VCS_270,c,VCS_180,b,1992,104624,VCS_360,d
A3I40B0FATY8VH,3,30,VCS_340,d,VCS_70,a,VCS_160,b,VCS_250,c,2364,107995,VCS_250,c
A3I40B0FATY8VH,3,31,VCS_340,d,VCS_240,c,VCS_160,b,VCS_80,a,2152,111150,VCS_240,c
A3LVLZS8S41ZD7,3,0,VCS_240,c,VCS_150,b,VCS_330,d,VCS_60,a,2182,40104,VCS_330,d
A3LVLZS8S41ZD7,3,1,VCS_340,d,VCS_80,a,VCS_160,b,VCS_240,c,1475,42600,VCS_240,c
A3LVLZS8S41ZD7,3,2,VCS_350,d,VCS_70,a,VCS_170,b,VCS_270,c,1312,44928,VCS_270,c
A3LVLZS8S41ZD7,3,3,VCS_340,d,VCS_70,a,VCS_160,b,VCS_250,c,1655,47614,VCS_250,c
A3LVLZS8S41ZD7,3,4,VCS_70,a,VCS_170,b,VCS_330,d,VCS_250,c,2755,51400,VCS_170,b
A3LVLZS8S41ZD7,3,5,VCS_360,d,VCS_90,a,VCS_180,b,VCS_270,c,2235,54648,VCS_270,c
A3LVLZS8S41ZD7,3,6,VCS_70,a,VCS_160,b,VCS_340,d,VCS_250,c,1908,57576,VCS_160,b
A3LVLZS8S41ZD7,3,7,VCS_70,a,VCS_150,b,VCS_250,c,VCS_350,d,1024,59616,VCS_150,b
A3LVLZS8S41ZD7,3,8,VCS_170,b,VCS_250,c,VCS_90,a,VCS_350,d,1068,61696,VCS_90,a
A3LVLZS8S41ZD7,3,9,VCS_350,d,VCS_170,b,VCS_250,c,VCS_90,a,1101,63816,VCS_250,c
A3LVLZS8S41ZD7,3,10,VCS_80,a,VCS_170,b,VCS_260,c,VCS_350,d,914,65760,VCS_170,b
A3LVLZS8S41ZD7,3,11,VCS_180,b,VCS_360,d,VCS_270,c,VCS_90,a,1137,67920,VCS_90,a
A3LVLZS8S41ZD7,3,12,VCS_270,c,VCS_180,b,VCS_90,a,VCS_360,d,1278,70224,VCS_360,d
A3LVLZS8S41ZD7,3,13,VCS_250,c,VCS_170,b,VCS_70,a,VCS_330,d,797,72040,VCS_330,d
A3LVLZS8S41ZD7,3,14,VCS_170,b,VCS_260,c,VCS_80,a,VCS_350,d,1115,74176,VCS_80,a
A3LVLZS8S41ZD7,3,15,VCS_150,b,VCS_60,a,VCS_330,d,VCS_240,c,920,76112,VCS_60,a
A3LVLZS8S41ZD7,3,16,VCS_160,b,VCS_250,c,VCS_70,a,VCS_340,d,909,78048,VCS_70,a
A3LVLZS8S41ZD7,3,17,VCS_80,a,VCS_160,b,VCS_360,d,VCS_260,c,935,80008,VCS_160,b
A3LVLZS8S41ZD7,3,18,VCS_340,d,VCS_260,c,VCS_160,b,VCS_60,a,827,81856,VCS_260,c
A3LVLZS8S41ZD7,3,19,VCS_330,d,VCS_240,c,VCS_60,a,VCS_150,b,757,83640,VCS_240,c
A3LVLZS8S41ZD7,3,20,VCS_160,b,VCS_80,a,VCS_240,c,VCS_340,d,956,85608,VCS_80,a
A3LVLZS8S41ZD7,3,21,VCS_160,b,VCS_340,d,VCS_260,c,VCS_60,a,900,87528,VCS_60,a
A3LVLZS8S41ZD7,3,22,VCS_260,c,VCS_340,d,VCS_80,a,VCS_180,b,821,89368,VCS_340,d
A3LVLZS8S41ZD7,3,23,VCS_350,d,VCS_260,c,VCS_80,a,VCS_170,b,643,91024,VCS_260,c
A3LVLZS8S41ZD7,3,24,VCS_90,a,VCS_360,d,VCS_180,b,VCS_270,c,849,92896,VCS_180,b
A3LVLZS8S41ZD7,3,25,VCS_260,c,VCS_170,b,VCS_350,d,VCS_80,a,734,94648,VCS_350,d
A3LVLZS8S41ZD7,3,26,VCS_260,c,VCS_160,b,VCS_80,a,VCS_360,d,843,96520,VCS_360,d
A3LVLZS8S41ZD7,3,27,VCS_250,c,VCS_340,d,VCS_160,b,VCS_70,a,1088,98632,VCS_340,d
A3LVLZS8S41ZD7,3,28,VCS_170,b,VCS_70,a,VCS_270,c,VCS_350,d,1108,100768,VCS_70,a
A3LVLZS8S41ZD7,3,29,VCS_60,a,VCS_150,b,VCS_330,d,VCS_240,c,719,102512,VCS_150,b
A3LVLZS8S41ZD7,3,30,VCS_250,c,VCS_70,a,VCS_350,d,VCS_150,b,724,104264,VCS_350,d
A3LVLZS8S41ZD7,3,31,VCS_80,a,VCS_260,c,VCS_180,b,VCS_340,d,937,106232,VCS_180,b
A3Q6YRWUMALT6D,1,0,VCS_70,a,VCS_350,d,VCS_150,b,VCS_250,c,1751,15086,VCS_150,b
A3Q6YRWUMALT6D,1,1,VCS_250,c,VCS_330,d,VCS_170,b,VCS_70,a,1909,18013,VCS_330,d
A3Q6YRWUMALT6D,1,2,VCS_60,a,VCS_240,c,VCS_330,d,VCS_150,b,4376,23413,VCS_330,d
A3Q6YRWUMALT6D,1,3,VCS_80,a,VCS_180,b,VCS_340,d,VCS_260,c,2145,26582,VCS_180,b
A3Q6YRWUMALT6D,1,4,VCS_360,d,VCS_90,a,VCS_270,c,VCS_180,b,1301,28901,VCS_270,c
A3Q6YRWUMALT6D,1,5,VCS_270,c,VCS_90,a,VCS_360,d,VCS_180,b,771,30703,VCS_360,d
A3Q6YRWUMALT6D,1,6,VCS_330,d,VCS_60,a,VCS_240,c,VCS_150,b,660,32378,VCS_240,c
A3Q6YRWUMALT6D,1,7,VCS_160,b,VCS_240,c,VCS_80,a,VCS_340,d,1132,34533,VCS_240,c
A3Q6YRWUMALT6D,1,8,VCS_340,d,VCS_260,c,VCS_160,b,VCS_60,a,997,36552,VCS_60,a
A3Q6YRWUMALT6D,1,9,VCS_340,d,VCS_70,a,VCS_250,c,VCS_160,b,1430,38984,VCS_250,c
A3Q6YRWUMALT6D,1,10,VCS_160,b,VCS_250,c,VCS_340,d,VCS_70,a,1067,41070,VCS_250,c
A3Q6YRWUMALT6D,1,11,VCS_250,c,VCS_160,b,VCS_340,d,VCS_70,a,2446,44525,VCS_160,b
A3Q6YRWUMALT6D,1,12,VCS_350,d,VCS_90,a,VCS_250,c,VCS_170,b,1353,46909,VCS_250,c
A3Q6YRWUMALT6D,1,13,VCS_350,d,VCS_80,a,VCS_170,b,VCS_260,c,1919,49860,VCS_260,c
A3Q6YRWUMALT6D,1,14,VCS_170,b,VCS_350,d,VCS_70,a,VCS_270,c,2496,53380,VCS_70,a
A3Q6YRWUMALT6D,1,15,VCS_160,b,VCS_260,c,VCS_60,a,VCS_340,d,1708,56115,VCS_60,a
A3Q6YRWUMALT6D,1,16,VCS_180,b,VCS_90,a,VCS_360,d,VCS_270,c,1255,58389,VCS_90,a
A3Q6YRWUMALT6D,1,17,VCS_80,a,VCS_260,c,VCS_170,b,VCS_350,d,900,60315,VCS_170,b
A3Q6YRWUMALT6D,1,18,VCS_80,a,VCS_260,c,VCS_360,d,VCS_160,b,2026,63356,VCS_160,b
A3Q6YRWUMALT6D,1,19,VCS_350,d,VCS_270,c,VCS_70,a,VCS_170,b,2543,66915,VCS_270,c
A3Q6YRWUMALT6D,1,20,VCS_170,b,VCS_90,a,VCS_350,d,VCS_250,c,1844,69764,VCS_90,a
A3Q6YRWUMALT6D,1,21,VCS_240,c,VCS_150,b,VCS_330,d,VCS_60,a,1970,72760,VCS_330,d
A3Q6YRWUMALT6D,1,22,VCS_260,c,VCS_80,a,VCS_180,b,VCS_340,d,2299,76088,VCS_340,d
A3Q6YRWUMALT6D,1,23,VCS_260,c,VCS_170,b,VCS_80,a,VCS_350,d,2300,79407,VCS_350,d
A3Q6YRWUMALT6D,1,24,VCS_170,b,VCS_80,a,VCS_260,c,VCS_350,d,2113,82552,VCS_80,a
A3Q6YRWUMALT6D,1,25,VCS_340,d,VCS_240,c,VCS_80,a,VCS_160,b,1212,84793,VCS_240,c
A3Q6YRWUMALT6D,1,26,VCS_250,c,VCS_350,d,VCS_150,b,VCS_70,a,1440,87262,VCS_350,d
A3Q6YRWUMALT6D,1,27,VCS_70,a,VCS_330,d,VCS_250,c,VCS_170,b,2378,90667,VCS_170,b
A3Q6YRWUMALT6D,1,28,VCS_90,a,VCS_180,b,VCS_270,c,VCS_360,d,1226,92918,VCS_180,b
A3Q6YRWUMALT6D,1,29,VCS_260,c,VCS_160,b,VCS_80,a,VCS_360,d,3692,97636,VCS_360,d
A3Q6YRWUMALT6D,1,30,VCS_150,b,VCS_240,c,VCS_60,a,VCS_330,d,1583,100245,VCS_60,a
A3Q6YRWUMALT6D,1,31,VCS_70,a,VCS_250,c,VCS_340,d,VCS_160,b,1345,102612,VCS_160,b
A3UV55HC87DO9C,1,0,VCS_260,c,VCS_80,a,VCS_360,d,VCS_160,b,1642,25456,VCS_160,b
A3UV55HC87DO9C,1,1,VCS_340,d,VCS_60,a,VCS_160,b,VCS_260,c,1743,28202,VCS_260,c
A3UV55HC87DO9C,1,2,VCS_350,d,VCS_260,c,VCS_80,a,VCS_170,b,1309,30517,VCS_260,c
A3UV55HC87DO9C,1,3,VCS_160,b,VCS_260,c,VCS_60,a,VCS_340,d,2361,33884,VCS_260,c
A3UV55HC87DO9C,1,4,VCS_180,b,VCS_270,c,VCS_90,a,VCS_360,d,2893,37781,VCS_90,a
A3UV55HC87DO9C,1,5,VCS_80,a,VCS_160,b,VCS_260,c,VCS_360,d,2300,41087,VCS_160,b
A3UV55HC87DO9C,1,6,VCS_260,c,VCS_180,b,VCS_340,d,VCS_80,a,1518,43608,VCS_340,d
A3UV55HC87DO9C,1,7,VCS_150,b,VCS_60,a,VCS_330,d,VCS_240,c,1634,46246,VCS_240,c
A3UV55HC87DO9C,1,8,VCS_60,a,VCS_240,c,VCS_150,b,VCS_330,d,878,48129,VCS_150,b
A3UV55HC87DO9C,1,9,VCS_250,c,VCS_150,b,VCS_350,d,VCS_70,a,1668,50804,VCS_350,d
A3UV55HC87DO9C,1,10,VCS_350,d,VCS_90,a,VCS_250,c,VCS_170,b,1222,53031,VCS_250,c
A3UV55HC87DO9C,1,11,VCS_90,a,VCS_360,d,VCS_180,b,VCS_270,c,847,54883,VCS_180,b
A3UV55HC87DO9C,1,12,VCS_340,d,VCS_160,b,VCS_80,a,VCS_240,c,1687,57578,VCS_240,c
A3UV55HC87DO9C,1,13,VCS_80,a,VCS_350,d,VCS_260,c,VCS_170,b,1106,59689,VCS_170,b
A3UV55HC87DO9C,1,14,VCS_360,d,VCS_270,c,VCS_90,a,VCS_180,b,1432,62126,VCS_270,c
A3UV55HC87DO9C,1,15,VCS_170,b,VCS_70,a,VCS_270,c,VCS_350,d,1699,64830,VCS_70,a
A3UV55HC87DO9C,1,16,VCS_160,b,VCS_70,a,VCS_250,c,VCS_340,d,1402,67237,VCS_70,a
A3UV55HC87DO9C,1,17,VCS_170,b,VCS_260,c,VCS_350,d,VCS_80,a,1160,69402,VCS_80,a
A3UV55HC87DO9C,1,18,VCS_250,c,VCS_170,b,VCS_330,d,VCS_70,a,1399,71806,VCS_330,d
A3UV55HC87DO9C,1,19,VCS_160,b,VCS_340,d,VCS_80,a,VCS_240,c,1107,73918,VCS_80,a
A3UV55HC87DO9C,1,20,VCS_70,a,VCS_170,b,VCS_250,c,VCS_330,d,1132,76056,VCS_170,b
A3UV55HC87DO9C,1,21,VCS_70,a,VCS_340,d,VCS_250,c,VCS_160,b,1129,78191,VCS_160,b
A3UV55HC87DO9C,1,22,VCS_240,c,VCS_330,d,VCS_150,b,VCS_60,a,2249,81445,VCS_150,b
A3UV55HC87DO9C,1,23,VCS_260,c,VCS_170,b,VCS_350,d,VCS_80,a,1512,83962,VCS_350,d
A3UV55HC87DO9C,1,24,VCS_80,a,VCS_180,b,VCS_340,d,VCS_260,c,1608,86574,VCS_180,b
A3UV55HC87DO9C,1,25,VCS_170,b,VCS_90,a,VCS_350,d,VCS_250,c,2683,90262,VCS_90,a
A3UV55HC87DO9C,1,26,VCS_270,c,VCS_180,b,VCS_90,a,VCS_360,d,1096,92364,VCS_360,d
A3UV55HC87DO9C,1,27,VCS_330,d,VCS_60,a,VCS_150,b,VCS_240,c,1853,95221,VCS_240,c
A3UV55HC87DO9C,1,28,VCS_70,a,VCS_350,d,VCS_150,b,VCS_250,c,1659,97885,VCS_150,b
A3UV55HC87DO9C,1,29,VCS_350,d,VCS_170,b,VCS_70,a,VCS_270,c,981,99871,VCS_270,c
A3UV55HC87DO9C,1,30,VCS_250,c,VCS_160,b,VCS_340,d,VCS_70,a,892,101769,VCS_340,d
A3UV55HC87DO9C,1,31,VCS_340,d,VCS_250,c,VCS_160,b,VCS_70,a,1950,104724,VCS_250,c
A3V2XCDF45VN9X,1,0,VCS_160,b,VCS_70,a,VCS_340,d,VCS_250,c,2273,9694,VCS_70,a
A3V2XCDF45VN9X,1,1,VCS_250,c,VCS_160,b,VCS_70,a,VCS_340,d,5897,16601,VCS_340,d
A3V2XCDF45VN9X,1,2,VCS_260,c,VCS_180,b,VCS_340,d,VCS_80,a,1850,19460,VCS_340,d
A3V2XCDF45VN9X,1,3,VCS_350,d,VCS_70,a,VCS_270,c,VCS_170,b,2302,22769,VCS_270,c
A3V2XCDF45VN9X,1,4,VCS_330,d,VCS_150,b,VCS_240,c,VCS_60,a,1634,25412,VCS_240,c
A3V2XCDF45VN9X,1,5,VCS_350,d,VCS_250,c,VCS_170,b,VCS_90,a,1732,28151,VCS_250,c
A3V2XCDF45VN9X,1,6,VCS_170,b,VCS_70,a,VCS_270,c,VCS_350,d,2581,31740,VCS_70,a
A3V2XCDF45VN9X,1,7,VCS_80,a,VCS_160,b,VCS_260,c,VCS_360,d,1206,33955,VCS_160,b
A3V2XCDF45VN9X,1,8,VCS_60,a,VCS_330,d,VCS_150,b,VCS_240,c,1359,36321,VCS_150,b
A3V2XCDF45VN9X,1,9,VCS_260,c,VCS_170,b,VCS_350,d,VCS_80,a,1889,39218,VCS_350,d
A3V2XCDF45VN9X,1,10,VCS_340,d,VCS_160,b,VCS_70,a,VCS_250,c,1477,41704,VCS_250,c
A3V2XCDF45VN9X,1,11,VCS_350,d,VCS_260,c,VCS_80,a,VCS_170,b,1245,43957,VCS_260,c
A3V2XCDF45VN9X,1,12,VCS_80,a,VCS_340,d,VCS_180,b,VCS_260,c,1309,46275,VCS_180,b
A3V2XCDF45VN9X,1,13,VCS_270,c,VCS_90,a,VCS_180,b,VCS_360,d,2952,50235,VCS_360,d
A3V2XCDF45VN9X,1,14,VCS_360,d,VCS_90,a,VCS_270,c,VCS_180,b,1190,52432,VCS_270,c
A3V2XCDF45VN9X,1,15,VCS_70,a,VCS_330,d,VCS_250,c,VCS_170,b,1926,55365,VCS_170,b
A3V2XCDF45VN9X,1,16,VCS_180,b,VCS_90,a,VCS_360,d,VCS_270,c,4086,60457,VCS_90,a
A3V2XCDF45VN9X,1,17,VCS_250,c,VCS_70,a,VCS_150,b,VCS_350,d,2352,63816,VCS_350,d
A3V2XCDF45VN9X,1,18,VCS_80,a,VCS_170,b,VCS_260,c,VCS_350,d,1345,66169,VCS_170,b
A3V2XCDF45VN9X,1,19,VCS_260,c,VCS_80,a,VCS_160,b,VCS_360,d,1725,68902,VCS_360,d
A3V2XCDF45VN9X,1,20,VCS_240,c,VCS_150,b,VCS_60,a,VCS_330,d,2182,72090,VCS_330,d
A3V2XCDF45VN9X,1,21,VCS_250,c,VCS_330,d,VCS_70,a,VCS_170,b,1965,75064,VCS_330,d
A3V2XCDF45VN9X,1,22,VCS_70,a,VCS_150,b,VCS_350,d,VCS_250,c,1234,77306,VCS_150,b
A3V2XCDF45VN9X,1,23,VCS_340,d,VCS_160,b,VCS_240,c,VCS_80,a,1543,79857,VCS_240,c
A3V2XCDF45VN9X,1,24,VCS_170,b,VCS_350,d,VCS_260,c,VCS_80,a,2490,83354,VCS_80,a
A3V2XCDF45VN9X,1,25,VCS_160,b,VCS_60,a,VCS_260,c,VCS_340,d,4284,88648,VCS_60,a
A3V2XCDF45VN9X,1,26,VCS_340,d,VCS_60,a,VCS_260,c,VCS_160,b,1183,90840,VCS_260,c
A3V2XCDF45VN9X,1,27,VCS_160,b,VCS_240,c,VCS_340,d,VCS_80,a,2020,93868,VCS_80,a
A3V2XCDF45VN9X,1,28,VCS_90,a,VCS_180,b,VCS_360,d,VCS_270,c,1439,96316,VCS_180,b
A3V2XCDF45VN9X,1,29,VCS_70,a,VCS_160,b,VCS_250,c,VCS_340,d,1167,98489,VCS_160,b
A3V2XCDF45VN9X,1,30,VCS_170,b,VCS_350,d,VCS_250,c,VCS_90,a,2361,101856,VCS_90,a
A3V2XCDF45VN9X,1,31,VCS_150,b,VCS_240,c,VCS_330,d,VCS_60,a,1138,104002,VCS_60,a
A4KNY0W5KXXZZ,1,0,VCS_170,b,VCS_350,d,VCS_260,c,VCS_80,a,1147,55953,VCS_260,c
A4KNY0W5KXXZZ,1,1,VCS_250,c,VCS_330,d,VCS_170,b,VCS_70,a,754,57729,VCS_170,b
A4KNY0W5KXXZZ,1,2,VCS_350,d,VCS_70,a,VCS_270,c,VCS_170,b,814,59561,VCS_70,a
A4KNY0W5KXXZZ,1,3,VCS_340,d,VCS_80,a,VCS_160,b,VCS_240,c,728,61305,VCS_80,a
A4KNY0W5KXXZZ,1,4,VCS_340,d,VCS_60,a,VCS_260,c,VCS_160,b,1047,63369,VCS_60,a
A4KNY0W5KXXZZ,1,5,VCS_350,d,VCS_90,a,VCS_170,b,VCS_250,c,835,65209,VCS_90,a
A4KNY0W5KXXZZ,1,6,VCS_250,c,VCS_70,a,VCS_350,d,VCS_150,b,757,66985,VCS_350,d
A4KNY0W5KXXZZ,1,7,VCS_60,a,VCS_240,c,VCS_150,b,VCS_330,d,1291,69297,VCS_330,d
A4KNY0W5KXXZZ,1,8,VCS_70,a,VCS_160,b,VCS_340,d,VCS_250,c,1085,71393,VCS_340,d
A4KNY0W5KXXZZ,1,9,VCS_80,a,VCS_160,b,VCS_260,c,VCS_360,d,880,73281,VCS_360,d
A4KNY0W5KXXZZ,1,10,VCS_170,b,VCS_350,d,VCS_250,c,VCS_90,a,1288,75585,VCS_250,c
A4KNY0W5KXXZZ,1,11,VCS_250,c,VCS_160,b,VCS_70,a,VCS_340,d,775,77369,VCS_340,d
A4KNY0W5KXXZZ,1,12,VCS_150,b,VCS_60,a,VCS_240,c,VCS_330,d,868,79257,VCS_240,c
A4KNY0W5KXXZZ,1,13,VCS_160,b,VCS_260,c,VCS_60,a,VCS_340,d,794,81057,VCS_260,c
A4KNY0W5KXXZZ,1,14,VCS_260,c,VCS_80,a,VCS_360,d,VCS_160,b,905,82977,VCS_80,a
A4KNY0W5KXXZZ,1,15,VCS_340,d,VCS_250,c,VCS_70,a,VCS_160,b,781,84785,VCS_250,c
A4KNY0W5KXXZZ,1,16,VCS_180,b,VCS_270,c,VCS_90,a,VCS_360,d,832,86633,VCS_270,c
A4KNY0W5KXXZZ,1,17,VCS_80,a,VCS_350,d,VCS_260,c,VCS_170,b,927,88577,VCS_260,c
A4KNY0W5KXXZZ,1,18,VCS_260,c,VCS_80,a,VCS_180,b,VCS_340,d,723,90314,VCS_80,a
A4KNY0W5KXXZZ,1,19,VCS_160,b,VCS_80,a,VCS_340,d,VCS_240,c,1935,93258,VCS_240,c
A4KNY0W5KXXZZ,1,20,VCS_70,a,VCS_250,c,VCS_350,d,VCS_150,b,890,95162,VCS_350,d
A4KNY0W5KXXZZ,1,21,VCS_360,d,VCS_90,a,VCS_270,c,VCS_180,b,1736,97906,VCS_90,a
A4KNY0W5KXXZZ,1,22,VCS_80,a,VCS_260,c,VCS_180,b,VCS_340,d,2251,101178,VCS_340,d
A4KNY0W5KXXZZ,1,23,VCS_160,b,VCS_70,a,VCS_250,c,VCS_340,d,1817,104002,VCS_250,c
A4KNY0W5KXXZZ,1,24,VCS_330,d,VCS_60,a,VCS_240,c,VCS_150,b,2175,107210,VCS_60,a
A4KNY0W5KXXZZ,1,25,VCS_240,c,VCS_60,a,VCS_150,b,VCS_330,d,1080,109306,VCS_150,b
A4KNY0W5KXXZZ,1,26,VCS_70,a,VCS_250,c,VCS_170,b,VCS_330,d,2108,112442,VCS_330,d
A4KNY0W5KXXZZ,1,27,VCS_170,b,VCS_350,d,VCS_270,c,VCS_70,a,1707,115154,VCS_270,c
A4KNY0W5KXXZZ,1,28,VCS_350,d,VCS_80,a,VCS_170,b,VCS_260,c,964,117139,VCS_80,a
A4KNY0W5KXXZZ,1,29,VCS_260,c,VCS_80,a,VCS_350,d,VCS_170,b,1777,119938,VCS_80,a
A4KNY0W5KXXZZ,1,30,VCS_270,c,VCS_90,a,VCS_360,d,VCS_180,b,1248,122202,VCS_90,a
A4KNY0W5KXXZZ,1,31,VCS_90,a,VCS_360,d,VCS_180,b,VCS_270,c,1248,124458,VCS_360,d
AB09F0Q4T10TE,1,0,VCS_180,b,VCS_270,c,VCS_360,d,VCS_90,a,2419,24462,VCS_270,c
AB09F0Q4T10TE,1,1,VCS_170,b,VCS_70,a,VCS_350,d,VCS_270,c,2453,27934,VCS_270,c
AB09F0Q4T10TE,1,2,VCS_70,a,VCS_250,c,VCS_170,b,VCS_330,d,6219,35182,VCS_170,b
AB09F0Q4T10TE,1,3,VCS_340,d,VCS_60,a,VCS_160,b,VCS_260,c,989,37190,VCS_60,a
AB09F0Q4T10TE,1,4,VCS_150,b,VCS_60,a,VCS_330,d,VCS_240,c,2712,40934,VCS_240,c
AB09F0Q4T10TE,1,5,VCS_330,d,VCS_150,b,VCS_240,c,VCS_60,a,3063,45014,VCS_240,c
AB09F0Q4T10TE,1,6,VCS_160,b,VCS_80,a,VCS_340,d,VCS_240,c,1469,47502,VCS_240,c
AB09F0Q4T10TE,1,7,VCS_250,c,VCS_150,b,VCS_70,a,VCS_350,d,1962,50494,VCS_150,b
AB09F0Q4T10TE,1,8,VCS_70,a,VCS_340,d,VCS_160,b,VCS_250,c,6465,57966,VCS_160,b
AB09F0Q4T10TE,1,9,VCS_160,b,VCS_340,d,VCS_260,c,VCS_60,a,7760,66742,VCS_60,a
AB09F0Q4T10TE,1,10,VCS_340,d,VCS_160,b,VCS_80,a,VCS_240,c,4576,72358,VCS_240,c
AB09F0Q4T10TE,1,11,VCS_170,b,VCS_80,a,VCS_260,c,VCS_350,d,11999,85382,VCS_80,a
AB09F0Q4T10TE,1,12,VCS_80,a,VCS_260,c,VCS_340,d,VCS_180,b,24865,111254,VCS_260,c
AB09F0Q4T10TE,1,13,VCS_250,c,VCS_170,b,VCS_330,d,VCS_70,a,3654,115926,VCS_330,d
AB09F0Q4T10TE,1,14,VCS_160,b,VCS_340,d,VCS_70,a,VCS_250,c,6983,123934,VCS_250,c
AB09F0Q4T10TE,1,15,VCS_240,c,VCS_330,d,VCS_60,a,VCS_150,b,2644,127590,VCS_330,d
AB09F0Q4T10TE,1,16,VCS_360,d,VCS_90,a,VCS_180,b,VCS_270,c,2539,131150,VCS_270,c
AB09F0Q4T10TE,1,17,VCS_70,a,VCS_350,d,VCS_150,b,VCS_250,c,2011,134182,VCS_150,b
AB09F0Q4T10TE,1,18,VCS_260,c,VCS_80,a,VCS_170,b,VCS_350,d,2480,137702,VCS_350,d
AB09F0Q4T10TE,1,19,VCS_270,c,VCS_360,d,VCS_180,b,VCS_90,a,4863,143574,VCS_360,d
AB09F0Q4T10TE,1,20,VCS_90,a,VCS_180,b,VCS_360,d,VCS_270,c,9792,154374,VCS_180,b
AB09F0Q4T10TE,1,21,VCS_80,a,VCS_260,c,VCS_170,b,VCS_350,d,3740,159142,VCS_170,b
AB09F0Q4T10TE,1,22,VCS_260,c,VCS_80,a,VCS_360,d,VCS_160,b,1209,161390,VCS_360,d
AB09F0Q4T10TE,1,23,VCS_60,a,VCS_150,b,VCS_330,d,VCS_240,c,1784,164206,VCS_150,b
AB09F0Q4T10TE,1,24,VCS_260,c,VCS_340,d,VCS_180,b,VCS_80,a,1272,166502,VCS_340,d
AB09F0Q4T10TE,1,25,VCS_170,b,VCS_350,d,VCS_250,c,VCS_90,a,2268,169790,VCS_250,c
AB09F0Q4T10TE,1,26,VCS_80,a,VCS_160,b,VCS_260,c,VCS_360,d,2452,173262,VCS_260,c
AB09F0Q4T10TE,1,27,VCS_350,d,VCS_70,a,VCS_270,c,VCS_170,b,10604,184894,VCS_270,c
AB09F0Q4T10TE,1,28,VCS_350,d,VCS_250,c,VCS_170,b,VCS_90,a,2032,187942,VCS_250,c
AB09F0Q4T10TE,1,29,VCS_350,d,VCS_260,c,VCS_170,b,VCS_80,a,1466,190438,VCS_260,c
AB09F0Q4T10TE,1,30,VCS_340,d,VCS_70,a,VCS_160,b,VCS_250,c,2128,193598,VCS_250,c
AB09F0Q4T10TE,1,31,VCS_250,c,VCS_160,b,VCS_340,d,VCS_70,a,1483,196094,VCS_340,d
AF0W4ZBY7VXOU,1,0,VCS_70,a,VCS_340,d,VCS_250,c,VCS_160,b,4331,24545,VCS_160,b
AF0W4ZBY7VXOU,1,1,VCS_250,c,VCS_330,d,VCS_70,a,VCS_170,b,1567,27134,VCS_330,d
AF0W4ZBY7VXOU,1,2,VCS_170,b,VCS_270,c,VCS_70,a,VCS_350,d,1895,30046,VCS_70,a
AF0W4ZBY7VXOU,1,3,VCS_340,d,VCS_250,c,VCS_70,a,VCS_160,b,1125,32186,VCS_250,c
AF0W4ZBY7VXOU,1,4,VCS_80,a,VCS_360,d,VCS_260,c,VCS_160,b,1164,34368,VCS_160,b
AF0W4ZBY7VXOU,1,5,VCS_160,b,VCS_260,c,VCS_60,a,VCS_340,d,2211,37591,VCS_60,a
AF0W4ZBY7VXOU,1,6,VCS_60,a,VCS_150,b,VCS_330,d,VCS_240,c,1033,39641,VCS_150,b
AF0W4ZBY7VXOU,1,7,VCS_330,d,VCS_240,c,VCS_60,a,VCS_150,b,1543,42200,VCS_240,c
AF0W4ZBY7VXOU,1,8,VCS_70,a,VCS_150,b,VCS_250,c,VCS_350,d,1237,44462,VCS_150,b
AF0W4ZBY7VXOU,1,9,VCS_150,b,VCS_60,a,VCS_330,d,VCS_240,c,1140,46613,VCS_60,a
AF0W4ZBY7VXOU,1,10,VCS_90,a,VCS_270,c,VCS_360,d,VCS_180,b,1420,49056,VCS_180,b
AF0W4ZBY7VXOU,1,11,VCS_80,a,VCS_260,c,VCS_340,d,VCS_180,b,1224,51291,VCS_180,b
AF0W4ZBY7VXOU,1,12,VCS_250,c,VCS_70,a,VCS_160,b,VCS_340,d,1722,54027,VCS_340,d
AF0W4ZBY7VXOU,1,13,VCS_340,d,VCS_160,b,VCS_260,c,VCS_60,a,1759,56811,VCS_260,c
AF0W4ZBY7VXOU,1,14,VCS_350,d,VCS_260,c,VCS_170,b,VCS_80,a,1175,59013,VCS_260,c
AF0W4ZBY7VXOU,1,15,VCS_250,c,VCS_350,d,VCS_150,b,VCS_70,a,840,60870,VCS_350,d
AF0W4ZBY7VXOU,1,16,VCS_170,b,VCS_90,a,VCS_350,d,VCS_250,c,2081,63965,VCS_90,a
AF0W4ZBY7VXOU,1,17,VCS_180,b,VCS_270,c,VCS_360,d,VCS_90,a,2324,67308,VCS_90,a
AF0W4ZBY7VXOU,1,18,VCS_160,b,VCS_340,d,VCS_240,c,VCS_80,a,2032,70361,VCS_80,a
AF0W4ZBY7VXOU,1,19,VCS_80,a,VCS_350,d,VCS_260,c,VCS_170,b,1962,73343,VCS_170,b
AF0W4ZBY7VXOU,1,20,VCS_350,d,VCS_90,a,VCS_250,c,VCS_170,b,1805,76162,VCS_250,c
AF0W4ZBY7VXOU,1,21,VCS_350,d,VCS_170,b,VCS_270,c,VCS_70,a,992,78177,VCS_270,c
AF0W4ZBY7VXOU,1,22,VCS_70,a,VCS_250,c,VCS_170,b,VCS_330,d,1992,81186,VCS_170,b
AF0W4ZBY7VXOU,1,23,VCS_170,b,VCS_350,d,VCS_260,c,VCS_80,a,1615,83816,VCS_80,a
AF0W4ZBY7VXOU,1,24,VCS_340,d,VCS_160,b,VCS_240,c,VCS_80,a,857,85695,VCS_240,c
AF0W4ZBY7VXOU,1,25,VCS_270,c,VCS_360,d,VCS_90,a,VCS_180,b,954,87661,VCS_360,d
AF0W4ZBY7VXOU,1,26,VCS_360,d,VCS_180,b,VCS_90,a,VCS_270,c,1499,90189,VCS_270,c
AF0W4ZBY7VXOU,1,27,VCS_260,c,VCS_80,a,VCS_350,d,VCS_170,b,913,92116,VCS_350,d
AF0W4ZBY7VXOU,1,28,VCS_260,c,VCS_180,b,VCS_340,d,VCS_80,a,866,93997,VCS_340,d
AF0W4ZBY7VXOU,1,29,VCS_160,b,VCS_340,d,VCS_70,a,VCS_250,c,1051,96066,VCS_70,a
AF0W4ZBY7VXOU,1,30,VCS_240,c,VCS_150,b,VCS_330,d,VCS_60,a,1086,98169,VCS_330,d
AF0W4ZBY7VXOU,1,31,VCS_260,c,VCS_80,a,VCS_360,d,VCS_160,b,779,99962,VCS_360,d
AJ7MWBQFNH3E4,1,0,VCS_340,d,VCS_160,b,VCS_70,a,VCS_250,c,3549,18841,VCS_250,c
AJ7MWBQFNH3E4,1,1,VCS_270,c,VCS_180,b,VCS_360,d,VCS_90,a,1539,21399,VCS_360,d
AJ7MWBQFNH3E4,1,2,VCS_170,b,VCS_350,d,VCS_270,c,VCS_70,a,1198,23619,VCS_70,a
AJ7MWBQFNH3E4,1,3,VCS_250,c,VCS_340,d,VCS_160,b,VCS_70,a,758,25393,VCS_340,d
AJ7MWBQFNH3E4,1,4,VCS_90,a,VCS_360,d,VCS_180,b,VCS_270,c,2620,29034,VCS_270,c
AJ7MWBQFNH3E4,1,5,VCS_360,d,VCS_90,a,VCS_180,b,VCS_270,c,1117,31166,VCS_270,c
AJ7MWBQFNH3E4,1,6,VCS_240,c,VCS_60,a,VCS_330,d,VCS_150,b,1421,33611,VCS_330,d
AJ7MWBQFNH3E4,1,7,VCS_170,b,VCS_350,d,VCS_260,c,VCS_80,a,2101,36725,VCS_80,a
AJ7MWBQFNH3E4,1,8,VCS_60,a,VCS_240,c,VCS_150,b,VCS_330,d,1057,38800,VCS_150,b
AJ7MWBQFNH3E4,1,9,VCS_250,c,VCS_330,d,VCS_70,a,VCS_170,b,789,40598,VCS_330,d
AJ7MWBQFNH3E4,1,10,VCS_350,d,VCS_260,c,VCS_170,b,VCS_80,a,1004,42621,VCS_260,c
AJ7MWBQFNH3E4,1,11,VCS_250,c,VCS_350,d,VCS_150,b,VCS_70,a,714,44350,VCS_350,d
AJ7MWBQFNH3E4,1,12,VCS_160,b,VCS_240,c,VCS_80,a,VCS_340,d,756,46133,VCS_80,a
AJ7MWBQFNH3E4,1,13,VCS_150,b,VCS_240,c,VCS_60,a,VCS_330,d,1426,48584,VCS_60,a
AJ7MWBQFNH3E4,1,14,VCS_70,a,VCS_250,c,VCS_160,b,VCS_340,d,663,50271,VCS_160,b
AJ7MWBQFNH3E4,1,15,VCS_180,b,VCS_90,a,VCS_360,d,VCS_270,c,1714,53009,VCS_90,a
AJ7MWBQFNH3E4,1,16,VCS_260,c,VCS_360,d,VCS_80,a,VCS_160,b,766,54791,VCS_360,d
AJ7MWBQFNH3E4,1,17,VCS_350,d,VCS_70,a,VCS_170,b,VCS_270,c,1020,56833,VCS_270,c
AJ7MWBQFNH3E4,1,18,VCS_170,b,VCS_90,a,VCS_350,d,VCS_250,c,988,58844,VCS_90,a
AJ7MWBQFNH3E4,1,19,VCS_350,d,VCS_90,a,VCS_170,b,VCS_250,c,823,60679,VCS_90,a
AJ7MWBQFNH3E4,1,20,VCS_330,d,VCS_60,a,VCS_150,b,VCS_240,c,1332,63040,VCS_240,c
AJ7MWBQFNH3E4,1,21,VCS_70,a,VCS_330,d,VCS_170,b,VCS_250,c,1293,65351,VCS_170,b
AJ7MWBQFNH3E4,1,22,VCS_80,a,VCS_260,c,VCS_340,d,VCS_180,b,1123,67487,VCS_340,d
AJ7MWBQFNH3E4,1,23,VCS_260,c,VCS_350,d,VCS_170,b,VCS_80,a,1481,69988,VCS_350,d
AJ7MWBQFNH3E4,1,24,VCS_80,a,VCS_360,d,VCS_260,c,VCS_160,b,1797,72806,VCS_160,b
AJ7MWBQFNH3E4,1,25,VCS_80,a,VCS_170,b,VCS_260,c,VCS_350,d,1600,75435,VCS_170,b
AJ7MWBQFNH3E4,1,26,VCS_160,b,VCS_340,d,VCS_70,a,VCS_250,c,1421,77884,VCS_70,a
AJ7MWBQFNH3E4,1,27,VCS_260,c,VCS_180,b,VCS_80,a,VCS_340,d,1497,80401,VCS_340,d
AJ7MWBQFNH3E4,1,28,VCS_340,d,VCS_160,b,VCS_240,c,VCS_80,a,2127,83545,VCS_240,c
AJ7MWBQFNH3E4,1,29,VCS_160,b,VCS_340,d,VCS_60,a,VCS_260,c,35000,119570,VCS_60,a
AJ7MWBQFNH3E4,1,30,VCS_340,d,VCS_60,a,VCS_260,c,VCS_160,b,1026,121630,VCS_260,c
AJ7MWBQFNH3E4,1,31,VCS_70,a,VCS_350,d,VCS_150,b,VCS_250,c,853,123496,VCS_350,d
AK35CJJEYFVYK,1,0,VCS_70,a,VCS_170,b,VCS_250,c,VCS_330,d,1299,6149,VCS_250,c
AK35CJJEYFVYK,1,1,VCS_250,c,VCS_150,b,VCS_70,a,VCS_350,d,834,8001,VCS_350,d
AK35CJJEYFVYK,1,2,VCS_260,c,VCS_80,a,VCS_340,d,VCS_180,b,1434,10457,VCS_80,a
AK35CJJEYFVYK,1,3,VCS_260,c,VCS_360,d,VCS_80,a,VCS_160,b,1404,12875,VCS_80,a
AK35CJJEYFVYK,1,4,VCS_170,b,VCS_350,d,VCS_70,a,VCS_270,c,3262,17151,VCS_70,a
AK35CJJEYFVYK,1,5,VCS_340,d,VCS_70,a,VCS_250,c,VCS_160,b,979,19145,VCS_70,a
AK35CJJEYFVYK,1,6,VCS_80,a,VCS_260,c,VCS_170,b,VCS_350,d,2726,22895,VCS_350,d
AK35CJJEYFVYK,1,7,VCS_80,a,VCS_360,d,VCS_260,c,VCS_160,b,1056,24965,VCS_360,d
AK35CJJEYFVYK,1,8,VCS_70,a,VCS_250,c,VCS_150,b,VCS_350,d,1296,27266,VCS_350,d
AK35CJJEYFVYK,1,9,VCS_60,a,VCS_150,b,VCS_240,c,VCS_330,d,2105,30389,VCS_330,d
